"","V1","date","time","group","subject","build","blocknum","trialnum","blockcode","trialcode","pretrialpause","posttrialpause","windowcenter","trialduration","trialtimeout","blocktimeout","response","correct","latency","inwindow"
"1","1","060417","16:24:54","945186093","455843278","4.0.10.0","1","2","demographics","age","0","0","0","0","0","0","25","1","1492","0"
"2","2","060417","16:24:54","945186093","455843278","4.0.10.0","1","3","demographics","gender","0","0","0","0","0","0","Male","1","11124","0"
"3","3","060417","16:23:49","945186093","455843278","4.0.10.0","1","2","demographics","age","0","0","0","0","0","0","25","1","1828","0"
"4","4","060417","16:23:49","945186093","455843278","4.0.10.0","1","3","demographics","gender","0","0","0","0","0","0","Male","1","3504","0"
"5","5","060417","16:17:48","912251804","453917922","4.0.10.0","1","2","demographics","age","0","0","0","0","0","0","39","1","4487","0"
"6","6","060417","16:17:48","912251804","453917922","4.0.10.0","1","3","demographics","gender","0","0","0","0","0","0","Male","1","4898","0"
"7","7","060417","21:11:49","462563064","576824149","4.0.10.0","1","2","demographics","age","0","0","0","0","0","0","32","1","4149","0"
"8","8","060417","21:11:49","462563064","576824149","4.0.10.0","1","3","demographics","gender","0","0","0","0","0","0","female","1","7727","0"
"9","9","060417","13:05:53","160297430","162872485","4.0.10.0","1","2","demographics","age","0","0","0","0","0","0","20","1","9303","0"
"10","10","060417","13:05:53","160297430","162872485","4.0.10.0","1","3","demographics","gender","0","0","0","0","0","0","Female","1","12603","0"
"11","11","060517","04:02:19","735441873","441229036","4.0.10.0","1","2","demographics","age","0","0","0","0","0","0","24","1","3212","0"
"12","12","060517","04:02:19","735441873","441229036","4.0.10.0","1","3","demographics","gender","0","0","0","0","0","0","male","1","3235","0"
"13","13","060417","12:59:23","10404180","891714010","4.0.10.0","1","2","demographics","age","0","0","0","0","0","0","27","1","2741","0"
"14","14","060417","12:59:23","10404180","891714010","4.0.10.0","1","3","demographics","gender","0","0","0","0","0","0","Male","1","3530","0"
"15","15","060417","20:58:44","629660402","347074539","4.0.10.0","1","2","demographics","age","0","0","0","0","0","0","30","1","33901","0"
"16","16","060417","20:58:44","629660402","347074539","4.0.10.0","1","3","demographics","gender","0","0","0","0","0","0","Female","1","5121","0"
"17","17","060417","15:52:12","337976538","647995710","4.0.10.0","1","2","demographics","age","0","0","0","0","0","0","19","1","2205","0"
"18","18","060417","15:52:12","337976538","647995710","4.0.10.0","1","3","demographics","gender","0","0","0","0","0","0","Female","1","6073","0"
"19","19","060417","20:52:05","425743518","728533097","4.0.10.0","1","2","demographics","age","0","0","0","0","0","0","56","1","4872","0"
"20","20","060417","20:52:05","425743518","728533097","4.0.10.0","1","3","demographics","gender","0","0","0","0","0","0","male","1","6542","0"
"21","21","060417","20:50:44","535351414","133849929","4.0.10.0","1","2","demographics","age","0","0","0","0","0","0","33","1","3574","0"
"22","22","060417","20:50:44","535351414","133849929","4.0.10.0","1","3","demographics","gender","0","0","0","0","0","0","female","1","12132","0"
"23","23","060417","14:48:41","270797721","498755454","4.0.10.0","1","2","demographics","age","0","0","0","0","0","0","52","1","3231","0"
"24","24","060417","14:48:41","270797721","498755454","4.0.10.0","1","3","demographics","gender","0","0","0","0","0","0","male","1","3186","0"
"25","25","060417","20:54:25","324572874","493095005","4.0.10.0","1","2","demographics","age","0","0","0","0","0","0","34","1","5139","0"
"26","26","060417","20:54:25","324572874","493095005","4.0.10.0","1","3","demographics","gender","0","0","0","0","0","0","Female","1","5473","0"
"27","27","060417","14:46:32","495735348","627215132","4.0.10.0","1","2","demographics","age","0","0","0","0","0","0","42","1","2648","0"
"28","28","060417","14:46:32","495735348","627215132","4.0.10.0","1","3","demographics","gender","0","0","0","0","0","0","male","1","3779","0"
"29","29","060417","20:46:09","132075648","380309630","4.0.10.0","1","2","demographics","age","0","0","0","0","0","0","59","1","4054","0"
"30","30","060417","20:46:09","132075648","380309630","4.0.10.0","1","3","demographics","gender","0","0","0","0","0","0","Female","1","5410","0"
"31","31","060417","20:43:57","406114516","495705547","4.0.10.0","1","2","demographics","age","0","0","0","0","0","0","48","1","8145","0"
"32","32","060417","20:43:57","406114516","495705547","4.0.10.0","1","3","demographics","gender","0","0","0","0","0","0","male","1","7627","0"
"33","33","060417","15:40:55","400780855","205768215","4.0.10.0","1","2","demographics","age","0","0","0","0","0","0","38","1","9102","0"
"34","34","060417","15:40:55","400780855","205768215","4.0.10.0","1","3","demographics","gender","0","0","0","0","0","0","female","1","14320","0"
"35","35","060417","15:44:01","780160822","791044348","4.0.10.0","1","2","demographics","age","0","0","0","0","0","0","21","1","3214","0"
"36","36","060417","15:44:01","780160822","791044348","4.0.10.0","1","3","demographics","gender","0","0","0","0","0","0","Male","1","2741","0"
"37","37","060417","15:42:38","780160822","791044348","4.0.10.0","1","2","demographics","age","0","0","0","0","0","0","21","1","2034","0"
"38","38","060417","15:42:38","780160822","791044348","4.0.10.0","1","3","demographics","gender","0","0","0","0","0","0","Male","1","4464","0"
"39","39","060417","20:41:13","880548285","810152956","4.0.10.0","1","2","demographics","age","0","0","0","0","0","0","36","1","4093","0"
"40","40","060417","20:41:13","880548285","810152956","4.0.10.0","1","3","demographics","gender","0","0","0","0","0","0","male","1","4673","0"
"41","41","060417","20:36:21","936534540","948795071","4.0.10.0","1","2","demographics","age","0","0","0","0","0","0","25","1","1982","0"
"42","42","060417","20:36:21","936534540","948795071","4.0.10.0","1","3","demographics","gender","0","0","0","0","0","0","Male","1","4227","0"
"43","43","060417","20:33:48","785399514","181428494","4.0.10.0","1","2","demographics","age","0","0","0","0","0","0","37","1","8176","0"
"44","44","060417","20:33:48","785399514","181428494","4.0.10.0","1","3","demographics","gender","0","0","0","0","0","0","male","1","6881","0"
"45","45","060417","20:31:13","872755866","154616245","4.0.10.0","1","2","demographics","age","0","0","0","0","0","0","49","1","3888","0"
"46","46","060417","20:31:13","872755866","154616245","4.0.10.0","1","3","demographics","gender","0","0","0","0","0","0","female","1","6427","0"
"47","47","060417","15:29:50","505846479","887228097","4.0.10.0","1","2","demographics","age","0","0","0","0","0","0","19","1","2196","0"
"48","48","060417","15:29:50","505846479","887228097","4.0.10.0","1","3","demographics","gender","0","0","0","0","0","0","female","1","4085","0"
"49","49","060417","12:29:20","698713139","664616672","4.0.10.0","1","2","demographics","age","0","0","0","0","0","0","30","1","2719","0"
"50","50","060417","12:29:20","698713139","664616672","4.0.10.0","1","3","demographics","gender","0","0","0","0","0","0","Male","1","3381","0"
"51","51","060417","20:28:05","30300769","284566866","4.0.10.0","1","2","demographics","age","0","0","0","0","0","0","19","1","2573","0"
"52","52","060417","20:28:05","30300769","284566866","4.0.10.0","1","3","demographics","gender","0","0","0","0","0","0","Male","1","4077","0"
"53","53","060417","14:28:29","575567236","265367309","4.0.10.0","1","2","demographics","age","0","0","0","0","0","0","29","1","2626","0"
"54","54","060417","14:28:29","575567236","265367309","4.0.10.0","1","3","demographics","gender","0","0","0","0","0","0","Male","1","4252","0"
"55","55","060417","20:28:00","298554245","677591777","4.0.10.0","1","2","demographics","age","0","0","0","0","0","0","45","1","6587","0"
"56","56","060417","20:28:00","298554245","677591777","4.0.10.0","1","3","demographics","gender","0","0","0","0","0","0","Male","1","8355","0"
"57","57","060417","20:28:01","146626409","604371446","4.0.10.0","1","2","demographics","age","0","0","0","0","0","0","27","1","3645","0"
"58","58","060417","20:28:01","146626409","604371446","4.0.10.0","1","3","demographics","gender","0","0","0","0","0","0","Genderfluid","1","6434","0"
"59","59","060417","15:28:23","5027230","182044162","4.0.10.0","1","2","demographics","age","0","0","0","0","0","0","39","1","3110","0"
"60","60","060417","15:28:23","5027230","182044162","4.0.10.0","1","3","demographics","gender","0","0","0","0","0","0","Male","1","5927","0"
"61","61","060417","20:23:29","868205906","769080369","4.0.10.0","1","2","demographics","age","0","0","0","0","0","0","31","1","4148","0"
"62","62","060417","20:23:29","868205906","769080369","4.0.10.0","1","3","demographics","gender","0","0","0","0","0","0","male","1","5990","0"
"63","63","060417","20:26:42","25672302","962655617","4.0.10.0","1","2","demographics","age","0","0","0","0","0","0","37","1","3554","0"
"64","64","060417","20:26:42","25672302","962655617","4.0.10.0","1","3","demographics","gender","0","0","0","0","0","0","male","1","3338","0"
"65","65","060417","12:27:05","920241848","256123597","4.0.10.0","1","2","demographics","age","0","0","0","0","0","0","30","1","9362","0"
"66","66","060417","12:27:05","920241848","256123597","4.0.10.0","1","3","demographics","gender","0","0","0","0","0","0","Female","1","22399","0"
"67","67","060417","14:26:22","52706880","930327382","4.0.10.0","1","2","demographics","age","0","0","0","0","0","0","21","1","4299","0"
"68","68","060417","14:26:22","52706880","930327382","4.0.10.0","1","3","demographics","gender","0","0","0","0","0","0","female","1","4865","0"
"69","69","060417","20:27:22","722134783","641195027","4.0.10.0","1","2","demographics","age","0","0","0","0","0","0","53","1","4067","0"
"70","70","060417","20:27:22","722134783","641195027","4.0.10.0","1","3","demographics","gender","0","0","0","0","0","0","F","1","2253","0"
"71","71","060417","20:27:30","484006725","776510904","4.0.10.0","1","2","demographics","age","0","0","0","0","0","0","34","1","2331","0"
"72","72","060417","20:27:30","484006725","776510904","4.0.10.0","1","3","demographics","gender","0","0","0","0","0","0","female","1","2970","0"
"73","73","060417","15:15:08","107177352","455114621","4.0.10.0","1","2","demographics","age","0","0","0","0","0","0","26","1","3404","0"
"74","74","060417","15:15:08","107177352","455114621","4.0.10.0","1","3","demographics","gender","0","0","0","0","0","0","female","1","3520","0"
"75","75","060417","20:26:52","304221558","311564819","4.0.10.0","1","2","demographics","age","0","0","0","0","0","0","34","1","2624","0"
"76","76","060417","20:26:52","304221558","311564819","4.0.10.0","1","3","demographics","gender","0","0","0","0","0","0","male","1","3515","0"
"77","77","060417","12:26:26","348493498","268205895","4.0.10.0","1","2","demographics","age","0","0","0","0","0","0","39","1","3150","0"
"78","78","060417","12:26:26","348493498","268205895","4.0.10.0","1","3","demographics","gender","0","0","0","0","0","0","Male","1","4313","0"
"79","79","060417","20:24:33","839245560","979890932","4.0.10.0","1","2","demographics","age","0","0","0","0","0","0","29","1","3593","0"
"80","80","060417","20:24:33","839245560","979890932","4.0.10.0","1","3","demographics","gender","0","0","0","0","0","0","Female","1","84564","0"
"81","81","060417","20:25:07","847291595","867396607","4.0.10.0","1","2","demographics","age","0","0","0","0","0","0","32","1","2393","0"
"82","82","060417","20:25:07","847291595","867396607","4.0.10.0","1","3","demographics","gender","0","0","0","0","0","0","Female","1","4921","0"
"83","83","060417","15:25:12","840495957","837274324","4.0.10.0","1","2","demographics","age","0","0","0","0","0","0","26","1","2573","0"
"84","84","060417","15:25:12","840495957","837274324","4.0.10.0","1","3","demographics","gender","0","0","0","0","0","0","male","1","4844","0"
"85","85","060417","15:25:07","772373814","904483451","4.0.10.0","1","2","demographics","age","0","0","0","0","0","0","22","1","1563","0"
"86","86","060417","15:25:07","772373814","904483451","4.0.10.0","1","3","demographics","gender","0","0","0","0","0","0","female","1","2631","0"
"87","87","060417","20:24:40","385569976","517718713","4.0.10.0","1","2","demographics","age","0","0","0","0","0","0","32","1","3760","0"
"88","88","060417","20:24:40","385569976","517718713","4.0.10.0","1","3","demographics","gender","0","0","0","0","0","0","Male","1","2706","0"
"89","89","060417","20:24:25","267939999","925039195","4.0.10.0","1","2","demographics","age","0","0","0","0","0","0","39","1","3205","0"
"90","90","060417","20:24:25","267939999","925039195","4.0.10.0","1","3","demographics","gender","0","0","0","0","0","0","female","1","3706","0"
"91","91","060417","20:23:50","951300841","763070601","4.0.10.0","1","2","demographics","age","0","0","0","0","0","0","45","1","2936","0"
"92","92","060417","20:23:50","951300841","763070601","4.0.10.0","1","3","demographics","gender","0","0","0","0","0","0","Female","1","9021","0"
"93","93","060417","20:23:23","871757282","198956067","4.0.10.0","1","2","demographics","age","0","0","0","0","0","0","31","1","3251","0"
"94","94","060417","20:23:23","871757282","198956067","4.0.10.0","1","3","demographics","gender","0","0","0","0","0","0","Female","1","4802","0"
"95","95","060417","20:23:02","204775815","705011027","4.0.10.0","1","2","demographics","age","0","0","0","0","0","0","58","1","2927","0"
"96","96","060417","20:23:02","204775815","705011027","4.0.10.0","1","3","demographics","gender","0","0","0","0","0","0","Female","1","5828","0"
"97","97","060417","20:24:43","482572247","375844458","4.0.10.0","1","2","demographics","age","0","0","0","0","0","0","30","1","5006","0"
"98","98","060417","20:24:43","482572247","375844458","4.0.10.0","1","3","demographics","gender","0","0","0","0","0","0","female","1","6522","0"
"99","99","060417","20:22:54","286134369","590321421","4.0.10.0","1","2","demographics","age","0","0","0","0","0","0","50","1","2961","0"
"100","100","060417","20:22:54","286134369","590321421","4.0.10.0","1","3","demographics","gender","0","0","0","0","0","0","Male","1","4905","0"
"101","101","060417","12:21:58","811859800","426569000","4.0.10.0","1","2","demographics","age","0","0","0","0","0","0","34","1","2705","0"
"102","102","060417","12:21:58","811859800","426569000","4.0.10.0","1","3","demographics","gender","0","0","0","0","0","0","male","1","38186","0"
"103","103","060417","20:21:45","328183299","689704003","4.0.10.0","1","2","demographics","age","0","0","0","0","0","0","26","1","3803","0"
"104","104","060417","20:21:45","328183299","689704003","4.0.10.0","1","3","demographics","gender","0","0","0","0","0","0","Male","1","5640","0"
"105","105","060417","20:22:17","378134443","480282262","4.0.10.0","1","2","demographics","age","0","0","0","0","0","0","35","1","3310","0"
"106","106","060417","20:22:17","378134443","480282262","4.0.10.0","1","3","demographics","gender","0","0","0","0","0","0","MALE","1","6730","0"
"107","107","060417","20:22:12","171362267","182730250","4.0.10.0","1","2","demographics","age","0","0","0","0","0","0","45","1","2962","0"
"108","108","060417","20:22:12","171362267","182730250","4.0.10.0","1","3","demographics","gender","0","0","0","0","0","0","Female","1","3760","0"
"109","109","060417","14:21:48","564915198","63537318","4.0.10.0","1","2","demographics","age","0","0","0","0","0","0","30 ","1","4227","0"
"110","110","060417","14:21:48","564915198","63537318","4.0.10.0","1","3","demographics","gender","0","0","0","0","0","0","Male","1","4087","0"
"111","111","060417","20:21:29","563938321","537108713","4.0.10.0","1","2","demographics","age","0","0","0","0","0","0","18","1","4511","0"
"112","112","060417","20:21:29","563938321","537108713","4.0.10.0","1","3","demographics","gender","0","0","0","0","0","0","Male","1","3425","0"
"113","113","060417","20:21:23","620414856","479141539","4.0.10.0","1","2","demographics","age","0","0","0","0","0","0","28","1","4894","0"
"114","114","060417","20:21:23","620414856","479141539","4.0.10.0","1","3","demographics","gender","0","0","0","0","0","0","Male","1","8836","0"
"115","115","060417","20:20:49","171362267","182730250","4.0.10.0","1","2","demographics","age","0","0","0","0","0","0","45","1","3468","0"
"116","116","060417","20:20:49","171362267","182730250","4.0.10.0","1","3","demographics","gender","0","0","0","0","0","0","Female","1","7382","0"
"117","117","060417","13:21:18","469570529","934992350","4.0.10.0","1","2","demographics","age","0","0","0","0","0","0","39","1","4468","0"
"118","118","060417","13:21:18","469570529","934992350","4.0.10.0","1","3","demographics","gender","0","0","0","0","0","0","Male","1","3210","0"
"119","119","060417","15:20:56","859162083","755042910","4.0.10.0","1","2","demographics","age","0","0","0","0","0","0","18","1","5046","0"
"120","120","060417","15:20:56","859162083","755042910","4.0.10.0","1","3","demographics","gender","0","0","0","0","0","0","Male","1","4258","0"
"121","121","060417","20:15:43","858952335","203701544","4.0.10.0","1","2","demographics","age","0","0","0","0","0","0","41","1","4180","0"
"122","122","060417","20:15:43","858952335","203701544","4.0.10.0","1","3","demographics","gender","0","0","0","0","0","0","Female","1","8507","0"
"123","123","060417","12:19:32","483342603","389506996","4.0.10.0","1","2","demographics","age","0","0","0","0","0","0","32","1","3551","0"
"124","124","060417","12:19:32","483342603","389506996","4.0.10.0","1","3","demographics","gender","0","0","0","0","0","0","female","1","6380","0"
"125","125","060417","20:19:54","522265016","502702267","4.0.10.0","1","2","demographics","age","0","0","0","0","0","0","37","1","5402","0"
"126","126","060417","20:19:54","522265016","502702267","4.0.10.0","1","3","demographics","gender","0","0","0","0","0","0","Male","1","3361","0"
"127","127","060417","20:19:53","837672870","814046299","4.0.10.0","1","2","demographics","age","0","0","0","0","0","0","24","1","5384","0"
"128","128","060417","20:19:53","837672870","814046299","4.0.10.0","1","3","demographics","gender","0","0","0","0","0","0","Female","1","5150","0"
"129","129","060417","20:19:54","334251702","325123416","4.0.10.0","1","2","demographics","age","0","0","0","0","0","0","24","1","4773","0"
"130","130","060417","20:19:54","334251702","325123416","4.0.10.0","1","3","demographics","gender","0","0","0","0","0","0","Male","1","3777","0"
"131","131","060417","20:19:57","864018913","343989429","4.0.10.0","1","2","demographics","age","0","0","0","0","0","0","51","1","5411","0"
"132","132","060417","20:19:57","864018913","343989429","4.0.10.0","1","3","demographics","gender","0","0","0","0","0","0","Male","1","5557","0"
"133","133","060417","20:19:08","666450096","178711551","4.0.10.0","1","2","demographics","age","0","0","0","0","0","0","36","1","4050","0"
"134","134","060417","20:19:08","666450096","178711551","4.0.10.0","1","3","demographics","gender","0","0","0","0","0","0","Female","1","4989","0"
"135","135","060417","20:18:03","306377556","174681585","4.0.10.0","1","2","demographics","age","0","0","0","0","0","0","40","1","12343","0"
"136","136","060417","20:18:03","306377556","174681585","4.0.10.0","1","3","demographics","gender","0","0","0","0","0","0","male","1","6783","0"
"137","137","060417","20:23:50","254526889","613029052","4.0.10.0","1","2","demographics","age","0","0","0","0","0","0","29","1","4804","0"
"138","138","060417","20:23:50","254526889","613029052","4.0.10.0","1","3","demographics","gender","0","0","0","0","0","0","Male","1","3460","0"
"139","139","060417","15:18:35","731217004","697604995","4.0.10.0","1","2","demographics","age","0","0","0","0","0","0","24","1","7009","0"
"140","140","060417","15:18:35","731217004","697604995","4.0.10.0","1","3","demographics","gender","0","0","0","0","0","0","female ","1","3428","0"
"141","141","060417","15:18:44","139447136","582580255","4.0.10.0","1","2","demographics","age","0","0","0","0","0","0","25","1","2359","0"
"142","142","060417","15:18:44","139447136","582580255","4.0.10.0","1","3","demographics","gender","0","0","0","0","0","0","female","1","4241","0"
"143","143","060417","20:18:04","469494194","802914543","4.0.10.0","1","2","demographics","age","0","0","0","0","0","0","41","1","3956","0"
"144","144","060417","20:18:04","469494194","802914543","4.0.10.0","1","3","demographics","gender","0","0","0","0","0","0","Female","1","3590","0"
"145","145","060417","20:17:14","459678011","168185587","4.0.10.0","1","2","demographics","age","0","0","0","0","0","0","37","1","4469","0"
"146","146","060417","20:17:14","459678011","168185587","4.0.10.0","1","3","demographics","gender","0","0","0","0","0","0","Female","1","8511","0"
"147","147","060417","20:17:50","919374337","436888456","4.0.10.0","1","2","demographics","age","0","0","0","0","0","0","28","1","6376","0"
"148","148","060417","20:17:50","919374337","436888456","4.0.10.0","1","3","demographics","gender","0","0","0","0","0","0","Male","1","4690","0"
"149","149","060417","15:16:59","515852736","855721928","4.0.10.0","1","2","demographics","age","0","0","0","0","0","0","23","1","2904","0"
"150","150","060417","15:16:59","515852736","855721928","4.0.10.0","1","3","demographics","gender","0","0","0","0","0","0","female","1","15239","0"
"151","151","060417","20:19:03","145257749","453635385","4.0.10.0","1","2","demographics","age","0","0","0","0","0","0","55","1","4976","0"
"152","152","060417","20:19:03","145257749","453635385","4.0.10.0","1","3","demographics","gender","0","0","0","0","0","0","female","1","9030","0"
"153","153","060417","15:17:11","716155174","354286018","4.0.10.0","1","2","demographics","age","0","0","0","0","0","0","25","1","6627","0"
"154","154","060417","15:17:11","716155174","354286018","4.0.10.0","1","3","demographics","gender","0","0","0","0","0","0","female","1","6356","0"
"155","155","060417","15:17:15","93588520","505304615","4.0.10.0","1","2","demographics","age","0","0","0","0","0","0","28","1","4711","0"
"156","156","060417","15:17:15","93588520","505304615","4.0.10.0","1","3","demographics","gender","0","0","0","0","0","0","female","1","4286","0"
"157","157","060417","20:17:14","499366255","877509404","4.0.10.0","1","2","demographics","age","0","0","0","0","0","0","56","1","3520","0"
"158","158","060417","20:17:14","499366255","877509404","4.0.10.0","1","3","demographics","gender","0","0","0","0","0","0","female","1","4156","0"
"159","159","060417","20:17:07","133317836","627691626","4.0.10.0","1","2","demographics","age","0","0","0","0","0","0","28","1","3223","0"
"160","160","060417","20:17:07","133317836","627691626","4.0.10.0","1","3","demographics","gender","0","0","0","0","0","0","male","1","3043","0"
"161","161","060417","20:16:28","222526036","346250836","4.0.10.0","1","2","demographics","age","0","0","0","0","0","0","49","1","6883","0"
"162","162","060417","20:16:28","222526036","346250836","4.0.10.0","1","3","demographics","gender","0","0","0","0","0","0","female","1","6545","0"
"163","163","060417","20:16:32","139170164","727211900","4.0.10.0","1","2","demographics","age","0","0","0","0","0","0","34","1","2576","0"
"164","164","060417","20:16:32","139170164","727211900","4.0.10.0","1","3","demographics","gender","0","0","0","0","0","0","female","1","3849","0"
"165","165","060417","15:16:07","327566851","639261157","4.0.10.0","1","2","demographics","age","0","0","0","0","0","0","25","1","3241","0"
"166","166","060417","15:16:07","327566851","639261157","4.0.10.0","1","3","demographics","gender","0","0","0","0","0","0","Male","1","3404","0"
"167","167","060417","20:16:21","581739212","995653998","4.0.10.0","1","2","demographics","age","0","0","0","0","0","0","24","1","3594","0"
"168","168","060417","20:16:21","581739212","995653998","4.0.10.0","1","3","demographics","gender","0","0","0","0","0","0","M","1","3052","0"
"169","169","060417","20:16:12","922135670","917032107","4.0.10.0","1","2","demographics","age","0","0","0","0","0","0","37","1","3238","0"
"170","170","060417","20:16:12","922135670","917032107","4.0.10.0","1","3","demographics","gender","0","0","0","0","0","0","female","1","4676","0"
"171","171","060417","20:14:44","54145913","595534358","4.0.10.0","1","2","demographics","age","0","0","0","0","0","0","50","1","3531","0"
"172","172","060417","20:14:44","54145913","595534358","4.0.10.0","1","3","demographics","gender","0","0","0","0","0","0","Female","1","5149","0"
"173","173","060417","14:15:02","86509825","511794391","4.0.10.0","1","2","demographics","age","0","0","0","0","0","0","19","1","5148","0"
"174","174","060417","14:15:02","86509825","511794391","4.0.10.0","1","3","demographics","gender","0","0","0","0","0","0","Male","1","3511","0"
"175","175","060417","15:14:46","111883285","441839737","4.0.10.0","1","2","demographics","age","0","0","0","0","0","0","39","1","4213","0"
"176","176","060417","15:14:46","111883285","441839737","4.0.10.0","1","3","demographics","gender","0","0","0","0","0","0","male","1","4338","0"
"177","177","060417","20:15:37","525359250","157097151","4.0.10.0","1","2","demographics","age","0","0","0","0","0","0","23","1","2110","0"
"178","178","060417","20:15:37","525359250","157097151","4.0.10.0","1","3","demographics","gender","0","0","0","0","0","0","female","1","3772","0"
"179","179","060417","14:15:21","93538017","467840940","4.0.10.0","1","2","demographics","age","0","0","0","0","0","0","21","1","3357","0"
"180","180","060417","14:15:21","93538017","467840940","4.0.10.0","1","3","demographics","gender","0","0","0","0","0","0","Female","1","5574","0"
"181","181","060417","20:15:12","864418781","384021627","4.0.10.0","1","2","demographics","age","0","0","0","0","0","0","39","1","4892","0"
"182","182","060417","20:15:12","864418781","384021627","4.0.10.0","1","3","demographics","gender","0","0","0","0","0","0","female","1","7286","0"
"183","183","060417","15:14:27","142934024","723727534","4.0.10.0","1","2","demographics","age","0","0","0","0","0","0","35","1","7991","0"
"184","184","060417","15:14:27","142934024","723727534","4.0.10.0","1","3","demographics","gender","0","0","0","0","0","0","female","1","7388","0"
"185","185","060417","20:14:36","35477679","525901279","4.0.10.0","1","2","demographics","age","0","0","0","0","0","0","52","1","3448","0"
"186","186","060417","20:14:36","35477679","525901279","4.0.10.0","1","3","demographics","gender","0","0","0","0","0","0","M","1","4949","0"
"187","187","060417","20:14:54","855189774","224946265","4.0.10.0","1","2","demographics","age","0","0","0","0","0","0","40","1","4451","0"
"188","188","060417","20:14:54","855189774","224946265","4.0.10.0","1","3","demographics","gender","0","0","0","0","0","0","female","1","4014","0"
"189","189","060417","20:13:44","166943715","692061908","4.0.10.0","1","2","demographics","age","0","0","0","0","0","0","35","1","5509","0"
"190","190","060417","20:13:44","166943715","692061908","4.0.10.0","1","3","demographics","gender","0","0","0","0","0","0","Female","1","7278","0"
"191","191","060417","20:14:29","740219603","210594139","4.0.10.0","1","2","demographics","age","0","0","0","0","0","0","52","1","3577","0"
"192","192","060417","20:14:29","740219603","210594139","4.0.10.0","1","3","demographics","gender","0","0","0","0","0","0","Male","1","4627","0"
"193","193","060417","20:08:59","625745889","988459104","4.0.10.0","1","2","demographics","age","0","0","0","0","0","0","31","1","4803","0"
"194","194","060417","20:08:59","625745889","988459104","4.0.10.0","1","3","demographics","gender","0","0","0","0","0","0","male","1","5366","0"
"195","195","060417","15:13:55","124280417","830086199","4.0.10.0","1","2","demographics","age","0","0","0","0","0","0","18","1","3072","0"
"196","196","060417","15:13:55","124280417","830086199","4.0.10.0","1","3","demographics","gender","0","0","0","0","0","0","Female","1","4983","0"
"197","197","060417","20:13:31","522832167","936709686","4.0.10.0","1","2","demographics","age","0","0","0","0","0","0","44","1","3256","0"
"198","198","060417","20:13:31","522832167","936709686","4.0.10.0","1","3","demographics","gender","0","0","0","0","0","0","Male","1","4430","0"
"199","199","060417","15:13:15","87790853","465932169","4.0.10.0","1","2","demographics","age","0","0","0","0","0","0","32","1","2600","0"
"200","200","060417","15:13:15","87790853","465932169","4.0.10.0","1","3","demographics","gender","0","0","0","0","0","0","male","1","7003","0"
"201","201","060417","14:13:13","690118983","67252295","4.0.10.0","1","2","demographics","age","0","0","0","0","0","0","33","1","3108","0"
"202","202","060417","14:13:13","690118983","67252295","4.0.10.0","1","3","demographics","gender","0","0","0","0","0","0","female","1","3980","0"
"203","203","060417","20:12:27","233334566","731323152","4.0.10.0","1","2","demographics","age","0","0","0","0","0","0","32","1","3418","0"
"204","204","060417","20:12:27","233334566","731323152","4.0.10.0","1","3","demographics","gender","0","0","0","0","0","0","female","1","4909","0"
"205","205","060417","20:13:32","88304016","479262982","4.0.10.0","1","2","demographics","age","0","0","0","0","0","0","38","1","3543","0"
"206","206","060417","20:13:32","88304016","479262982","4.0.10.0","1","3","demographics","gender","0","0","0","0","0","0","female","1","4927","0"
"207","207","060417","21:12:56","636772786","120598492","4.0.10.0","1","2","demographics","age","0","0","0","0","0","0","21","1","2343","0"
"208","208","060417","21:12:56","636772786","120598492","4.0.10.0","1","3","demographics","gender","0","0","0","0","0","0","Male","1","3367","0"
"209","209","060417","20:12:20","470359856","975540768","4.0.10.0","1","2","demographics","age","0","0","0","0","0","0","28","1","2741","0"
"210","210","060417","20:12:20","470359856","975540768","4.0.10.0","1","3","demographics","gender","0","0","0","0","0","0","male","1","2931","0"
"211","211","060417","20:12:20","632975772","881765166","4.0.10.0","1","2","demographics","age","0","0","0","0","0","0","33","1","2578","0"
"212","212","060417","20:12:20","632975772","881765166","4.0.10.0","1","3","demographics","gender","0","0","0","0","0","0","Male","1","4053","0"
"213","213","060417","15:11:54","847352554","201457349","4.0.10.0","1","2","demographics","age","0","0","0","0","0","0","55","1","4433","0"
"214","214","060417","15:11:54","847352554","201457349","4.0.10.0","1","3","demographics","gender","0","0","0","0","0","0","female","1","7171","0"
"215","215","060417","13:12:01","113617894","956506538","4.0.10.0","1","2","demographics","age","0","0","0","0","0","0","18","1","5635","0"
"216","216","060417","13:12:01","113617894","956506538","4.0.10.0","1","3","demographics","gender","0","0","0","0","0","0","male","1","4215","0"
"217","217","060417","15:11:52","97042880","470524118","4.0.10.0","1","2","demographics","age","0","0","0","0","0","0","54","1","3247","0"
"218","218","060417","15:11:52","97042880","470524118","4.0.10.0","1","3","demographics","gender","0","0","0","0","0","0","Female","1","2879","0"
"219","219","060417","20:11:53","855737391","193072512","4.0.10.0","1","2","demographics","age","0","0","0","0","0","0","38","1","2926","0"
"220","220","060417","20:11:53","855737391","193072512","4.0.10.0","1","3","demographics","gender","0","0","0","0","0","0","Male","1","3348","0"
"221","221","060417","20:10:50","478246340","791693979","4.0.10.0","1","2","demographics","age","0","0","0","0","0","0","57","1","9552","0"
"222","222","060417","20:10:50","478246340","791693979","4.0.10.0","1","3","demographics","gender","0","0","0","0","0","0","Female","1","5691","0"
"223","223","060417","15:11:18","41982450","525584548","4.0.10.0","1","2","demographics","age","0","0","0","0","0","0","25","1","2471","0"
"224","224","060417","15:11:18","41982450","525584548","4.0.10.0","1","3","demographics","gender","0","0","0","0","0","0","male","1","4587","0"
"225","225","060417","15:10:12","685493879","721828208","4.0.10.0","1","2","demographics","age","0","0","0","0","0","0","33","1","3749","0"
"226","226","060417","15:10:12","685493879","721828208","4.0.10.0","1","3","demographics","gender","0","0","0","0","0","0","male","1","4516","0"
"227","227","060417","12:09:56","12713185","868195884","4.0.10.0","1","2","demographics","age","0","0","0","0","0","0","22","1","2486","0"
"228","228","060417","12:09:56","12713185","868195884","4.0.10.0","1","3","demographics","gender","0","0","0","0","0","0","Male","1","3703","0"
"229","229","060417","19:01:19","413099954","404567924","4.0.10.0","1","2","demographics","age","0","0","0","0","0","0","56","1","3311","0"
"230","230","060417","19:01:19","413099954","404567924","4.0.10.0","1","3","demographics","gender","0","0","0","0","0","0","male","1","5313","0"
"231","231","060417","18:57:38","272053086","816327807","4.0.10.0","1","2","demographics","age","0","0","0","0","0","0","23","1","2121","0"
"232","232","060417","18:57:38","272053086","816327807","4.0.10.0","1","3","demographics","gender","0","0","0","0","0","0","Male","1","3189","0"
"233","233","060417","10:29:43","232950611","730529271","4.0.10.0","1","2","demographics","age","0","0","0","0","0","0","23","1","3252","0"
"234","234","060417","10:29:43","232950611","730529271","4.0.10.0","1","3","demographics","gender","0","0","0","0","0","0","female","1","21019","0"
"235","235","060417","18:28:00","454924036","904468731","4.0.10.0","1","2","demographics","age","0","0","0","0","0","0","59","1","4094","0"
"236","236","060417","18:28:00","454924036","904468731","4.0.10.0","1","3","demographics","gender","0","0","0","0","0","0","female","1","6510","0"
"237","237","060417","18:27:19","999588530","643586926","4.0.10.0","1","2","demographics","age","0","0","0","0","0","0","34","1","3817","0"
"238","238","060417","18:27:19","999588530","643586926","4.0.10.0","1","3","demographics","gender","0","0","0","0","0","0","Female","1","5399","0"
"239","239","060517","05:28:06","52245320","590930150","4.0.10.0","1","2","demographics","age","0","0","0","0","0","0","25","1","2142","0"
"240","240","060517","05:28:06","52245320","590930150","4.0.10.0","1","3","demographics","gender","0","0","0","0","0","0","male","1","3620","0"
"241","241","060417","18:27:33","668038714","734862087","4.0.10.0","1","2","demographics","age","0","0","0","0","0","0","48","1","3645","0"
"242","242","060417","18:27:33","668038714","734862087","4.0.10.0","1","3","demographics","gender","0","0","0","0","0","0","female","1","5632","0"
"243","243","060417","13:26:54","538068053","696528380","4.0.10.0","1","2","demographics","age","0","0","0","0","0","0","25","1","3620","0"
"244","244","060417","13:26:54","538068053","696528380","4.0.10.0","1","3","demographics","gender","0","0","0","0","0","0","Male","1","4062","0"
"245","245","060417","13:27:01","741642542","935803641","4.0.10.0","1","2","demographics","age","0","0","0","0","0","0","57","1","18347","0"
"246","246","060417","13:27:01","741642542","935803641","4.0.10.0","1","3","demographics","gender","0","0","0","0","0","0","male","1","6212","0"
"247","247","060417","18:17:21","481066033","965528916","4.0.10.0","1","2","demographics","age","0","0","0","0","0","0","39","1","3525","0"
"248","248","060417","18:17:21","481066033","965528916","4.0.10.0","1","3","demographics","gender","0","0","0","0","0","0","Female","1","3919","0"
"249","249","060417","13:08:41","458219993","218637285","4.0.10.0","1","2","demographics","age","0","0","0","0","0","0","25","1","2873","0"
"250","250","060417","13:08:41","458219993","218637285","4.0.10.0","1","3","demographics","gender","0","0","0","0","0","0","F","1","1518","0"
"251","251","060417","10:14:05","931861639","408386889","4.0.10.0","1","2","demographics","age","0","0","0","0","0","0","33","1","4398","0"
"252","252","060417","10:14:05","931861639","408386889","4.0.10.0","1","3","demographics","gender","0","0","0","0","0","0","Male","1","3826","0"
"253","253","060417","12:10:39","460841036","860747495","4.0.10.0","1","2","demographics","age","0","0","0","0","0","0","26","1","4000","0"
"254","254","060417","12:10:39","460841036","860747495","4.0.10.0","1","3","demographics","gender","0","0","0","0","0","0","Male","1","5138","0"
"255","255","060417","18:08:45","535981069","309180579","4.0.10.0","1","2","demographics","age","0","0","0","0","0","0","23","1","2557","0"
"256","256","060417","18:08:45","535981069","309180579","4.0.10.0","1","3","demographics","gender","0","0","0","0","0","0","Female","1","3126","0"
"257","257","060417","18:10:03","56454644","726054730","4.0.10.0","1","2","demographics","age","0","0","0","0","0","0","30","1","14121","0"
"258","258","060417","18:10:03","56454644","726054730","4.0.10.0","1","3","demographics","gender","0","0","0","0","0","0","female ","1","6780","0"
"259","259","060417","12:10:41","225703608","725110134","4.0.10.0","1","2","demographics","age","0","0","0","0","0","0","50","1","2495","0"
"260","260","060417","12:10:41","225703608","725110134","4.0.10.0","1","3","demographics","gender","0","0","0","0","0","0","male","1","3295","0"
"261","261","060417","18:09:43","144024626","566998704","4.0.10.0","1","2","demographics","age","0","0","0","0","0","0","21","1","1827","0"
"262","262","060417","18:09:43","144024626","566998704","4.0.10.0","1","3","demographics","gender","0","0","0","0","0","0","Female","1","4194","0"
"263","263","060417","18:09:55","470455649","851132882","4.0.10.0","1","2","demographics","age","0","0","0","0","0","0","38","1","2679","0"
"264","264","060417","18:09:55","470455649","851132882","4.0.10.0","1","3","demographics","gender","0","0","0","0","0","0","female","1","4673","0"
"265","265","060417","18:09:48","677535751","472908497","4.0.10.0","1","2","demographics","age","0","0","0","0","0","0","31","1","3021","0"
"266","266","060417","18:09:48","677535751","472908497","4.0.10.0","1","3","demographics","gender","0","0","0","0","0","0","Female","1","4163","0"
"267","267","060417","18:09:56","33498824","443727950","4.0.10.0","1","2","demographics","age","0","0","0","0","0","0","26","1","3164","0"
"268","268","060417","18:09:56","33498824","443727950","4.0.10.0","1","3","demographics","gender","0","0","0","0","0","0","Male","1","2994","0"
"269","269","060417","18:02:15","123170571","669753946","4.0.10.0","1","2","demographics","age","0","0","0","0","0","0","22","1","12917","0"
"270","270","060417","18:02:15","123170571","669753946","4.0.10.0","1","3","demographics","gender","0","0","0","0","0","0","Male","1","13464","0"
"271","271","060417","17:59:58","533015721","7452244","4.0.10.0","1","2","demographics","age","0","0","0","0","0","0","18","1","2207","0"
"272","272","060417","17:59:58","533015721","7452244","4.0.10.0","1","3","demographics","gender","0","0","0","0","0","0","male","1","5352","0"
"273","273","060417","09:55:27","927187981","559287318","4.0.10.0","1","2","demographics","age","0","0","0","0","0","0","20","1","6205","0"
"274","274","060417","09:55:27","927187981","559287318","4.0.10.0","1","3","demographics","gender","0","0","0","0","0","0","Male","1","4763","0"
"275","275","060417","17:54:58","519059014","610474241","4.0.10.0","1","2","demographics","age","0","0","0","0","0","0","22","1","1608","0"
"276","276","060417","17:54:58","519059014","610474241","4.0.10.0","1","3","demographics","gender","0","0","0","0","0","0","female","1","2439","0"
"277","277","060417","17:46:46","252166020","667910505","4.0.10.0","1","2","demographics","age","0","0","0","0","0","0","20","1","2831","0"
"278","278","060417","17:46:46","252166020","667910505","4.0.10.0","1","3","demographics","gender","0","0","0","0","0","0","Female","1","3434","0"
"279","279","060417","17:43:30","348247922","379985411","4.0.10.0","1","2","demographics","age","0","0","0","0","0","0","32","1","2714","0"
"280","280","060417","17:43:30","348247922","379985411","4.0.10.0","1","3","demographics","gender","0","0","0","0","0","0","Female","1","4322","0"
"281","281","060417","17:32:39","674436028","519411578","4.0.10.0","1","2","demographics","age","0","0","0","0","0","0","23","1","8298","0"
"282","282","060417","17:32:39","674436028","519411578","4.0.10.0","1","3","demographics","gender","0","0","0","0","0","0","Male","1","5459","0"
"283","283","060417","09:32:11","927063519","466011057","4.0.10.0","1","2","demographics","age","0","0","0","0","0","0","50","1","3065","0"
"284","284","060417","09:32:11","927063519","466011057","4.0.10.0","1","3","demographics","gender","0","0","0","0","0","0","Male","1","4834","0"
"285","285","060417","12:31:11","395576020","311429558","4.0.10.0","1","2","demographics","age","0","0","0","0","0","0","44","1","2971","0"
"286","286","060417","12:31:11","395576020","311429558","4.0.10.0","1","3","demographics","gender","0","0","0","0","0","0","44","1","5099","0"
"287","287","060417","09:30:11","340119238","968803153","4.0.10.0","1","2","demographics","age","0","0","0","0","0","0","27","1","2642","0"
"288","288","060417","09:30:11","340119238","968803153","4.0.10.0","1","3","demographics","gender","0","0","0","0","0","0","Female","1","2807","0"
"289","289","060417","09:30:18","36998062","661359128","4.0.10.0","1","2","demographics","age","0","0","0","0","0","0","54","1","4263","0"
"290","290","060417","09:30:18","36998062","661359128","4.0.10.0","1","3","demographics","gender","0","0","0","0","0","0","female","1","6298","0"
"291","291","060417","12:27:56","248447557","712192411","4.0.10.0","1","2","demographics","age","0","0","0","0","0","0","24","1","2999","0"
"292","292","060417","12:27:56","248447557","712192411","4.0.10.0","1","3","demographics","gender","0","0","0","0","0","0","female","1","6528","0"
"293","293","060417","17:21:36","863775539","887407686","4.0.10.0","1","2","demographics","age","0","0","0","0","0","0","55","1","3824","0"
"294","294","060417","17:21:36","863775539","887407686","4.0.10.0","1","3","demographics","gender","0","0","0","0","0","0","female","1","3676","0"
"295","295","060417","09:21:33","673632885","436062537","4.0.10.0","1","2","demographics","age","0","0","0","0","0","0","27","1","2118","0"
"296","296","060417","09:21:33","673632885","436062537","4.0.10.0","1","3","demographics","gender","0","0","0","0","0","0","Female","1","2504","0"
"297","297","060417","17:21:11","488402716","539496194","4.0.10.0","1","2","demographics","age","0","0","0","0","0","0","34","1","3465","0"
"298","298","060417","17:21:11","488402716","539496194","4.0.10.0","1","3","demographics","gender","0","0","0","0","0","0","Male","1","2650","0"
"299","299","060417","12:19:16","960447575","326986137","4.0.10.0","1","2","demographics","age","0","0","0","0","0","0","22","1","2895","0"
"300","300","060417","12:19:16","960447575","326986137","4.0.10.0","1","3","demographics","gender","0","0","0","0","0","0","Male ","1","4233","0"
"301","301","060417","17:18:01","91148870","658267614","4.0.10.0","1","2","demographics","age","0","0","0","0","0","0","18","1","2634","0"
"302","302","060417","17:18:01","91148870","658267614","4.0.10.0","1","3","demographics","gender","0","0","0","0","0","0","Male","1","7781","0"
"303","303","060417","17:17:15","899819852","382197689","4.0.10.0","1","2","demographics","age","0","0","0","0","0","0","47","1","2996","0"
"304","304","060417","17:17:15","899819852","382197689","4.0.10.0","1","3","demographics","gender","0","0","0","0","0","0","male","1","5465","0"
"305","305","060417","12:12:51","551419226","558276196","4.0.10.0","1","2","demographics","age","0","0","0","0","0","0","36","1","3178","0"
"306","306","060417","12:12:51","551419226","558276196","4.0.10.0","1","3","demographics","gender","0","0","0","0","0","0","Female","1","7412","0"
"307","307","060417","09:12:28","673632885","436062537","4.0.10.0","1","2","demographics","age","0","0","0","0","0","0","27","1","3342","0"
"308","308","060417","09:12:28","673632885","436062537","4.0.10.0","1","3","demographics","gender","0","0","0","0","0","0","Female","1","2907","0"
"309","309","060417","17:12:34","710023077","704954946","4.0.10.0","1","2","demographics","age","0","0","0","0","0","0","57","1","3112","0"
"310","310","060417","17:12:34","710023077","704954946","4.0.10.0","1","3","demographics","gender","0","0","0","0","0","0","female","1","3945","0"
"311","311","060417","17:12:21","868054992","715227398","4.0.10.0","1","2","demographics","age","0","0","0","0","0","0","26","1","3304","0"
"312","312","060417","17:12:21","868054992","715227398","4.0.10.0","1","3","demographics","gender","0","0","0","0","0","0","Female","1","4934","0"
"313","313","060417","11:10:36","937107730","180832546","4.0.10.0","1","2","demographics","age","0","0","0","0","0","0","22","1","1856","0"
"314","314","060417","11:10:36","937107730","180832546","4.0.10.0","1","3","demographics","gender","0","0","0","0","0","0","Male","1","2431","0"
"315","315","060417","17:10:06","865011078","84624829","4.0.10.0","1","2","demographics","age","0","0","0","0","0","0","56","1","3064","0"
"316","316","060417","17:10:06","865011078","84624829","4.0.10.0","1","3","demographics","gender","0","0","0","0","0","0","Femal","1","5164","0"
"317","317","060417","17:06:26","921339084","167445344","4.0.10.0","1","2","demographics","age","0","0","0","0","0","0","56","1","3905","0"
"318","318","060417","17:06:26","921339084","167445344","4.0.10.0","1","3","demographics","gender","0","0","0","0","0","0","Female","1","6093","0"
"319","319","060417","11:07:17","110502596","388918415","4.0.10.0","1","2","demographics","age","0","0","0","0","0","0","35","1","3089","0"
"320","320","060417","11:07:17","110502596","388918415","4.0.10.0","1","3","demographics","gender","0","0","0","0","0","0","female","1","5915","0"
"321","321","060417","17:06:41","660991506","90893394","4.0.10.0","1","2","demographics","age","0","0","0","0","0","0","51","1","2794","0"
"322","322","060417","17:06:41","660991506","90893394","4.0.10.0","1","3","demographics","gender","0","0","0","0","0","0","f","1","2989","0"
"323","323","060417","17:06:03","402966569","966841341","4.0.10.0","1","2","demographics","age","0","0","0","0","0","0","37","1","4165","0"
"324","324","060417","17:06:03","402966569","966841341","4.0.10.0","1","3","demographics","gender","0","0","0","0","0","0","male","1","4409","0"
"325","325","060417","08:58:53","807161732","427445931","4.0.10.0","1","2","demographics","age","0","0","0","0","0","0","28","1","6405","0"
"326","326","060417","08:58:53","807161732","427445931","4.0.10.0","1","3","demographics","gender","0","0","0","0","0","0","woman","1","3744","0"
"327","327","060417","17:04:46","63761566","108182606","4.0.10.0","1","2","demographics","age","0","0","0","0","0","0","51","1","2904","0"
"328","328","060417","17:04:46","63761566","108182606","4.0.10.0","1","3","demographics","gender","0","0","0","0","0","0","female","1","5630","0"
"329","329","060417","17:04:18","320154384","775697061","4.0.10.0","1","2","demographics","age","0","0","0","0","0","0","36","1","4246","0"
"330","330","060417","17:04:18","320154384","775697061","4.0.10.0","1","3","demographics","gender","0","0","0","0","0","0","female","1","6093","0"
"331","331","060417","12:04:59","545995120","830000830","4.0.10.0","1","2","demographics","age","0","0","0","0","0","0","23","1","3046","0"
"332","332","060417","12:04:59","545995120","830000830","4.0.10.0","1","3","demographics","gender","0","0","0","0","0","0","female","1","3883","0"
"333","333","060417","09:02:12","443780755","741723927","4.0.10.0","1","2","demographics","age","0","0","0","0","0","0","","1","8725","0"
"334","334","060417","17:01:50","117379898","211206188","4.0.10.0","1","2","demographics","age","0","0","0","0","0","0","39","1","3797","0"
"335","335","060417","17:01:50","117379898","211206188","4.0.10.0","1","3","demographics","gender","0","0","0","0","0","0","female","1","5861","0"
"336","336","060417","10:03:04","144533158","51670134","4.0.10.0","1","2","demographics","age","0","0","0","0","0","0","34","1","2716","0"
"337","337","060417","10:03:04","144533158","51670134","4.0.10.0","1","3","demographics","gender","0","0","0","0","0","0","male","1","6037","0"
"338","338","060417","17:08:02","350353723","326503556","4.0.10.0","1","2","demographics","age","0","0","0","0","0","0","37","1","3988","0"
"339","339","060417","17:08:02","350353723","326503556","4.0.10.0","1","3","demographics","gender","0","0","0","0","0","0","MALE","1","4374","0"
"340","340","060417","17:02:45","555797638","925850409","4.0.10.0","1","2","demographics","age","0","0","0","0","0","0","36","1","3068","0"
"341","341","060417","17:02:45","555797638","925850409","4.0.10.0","1","3","demographics","gender","0","0","0","0","0","0","male","1","4010","0"
"342","342","060417","11:09:43","970698008","426797854","4.0.10.0","1","2","demographics","age","0","0","0","0","0","0","20","1","4731","0"
"343","343","060417","11:09:43","970698008","426797854","4.0.10.0","1","3","demographics","gender","0","0","0","0","0","0","Male","1","2127","0"
"344","344","060417","17:03:01","457954331","918041619","4.0.10.0","1","2","demographics","age","0","0","0","0","0","0","36","1","3437","0"
"345","345","060417","17:03:01","457954331","918041619","4.0.10.0","1","3","demographics","gender","0","0","0","0","0","0","Female","1","3864","0"
"346","346","060417","17:02:31","327139127","991620721","4.0.10.0","1","2","demographics","age","0","0","0","0","0","0","","1","6012","0"
"347","347","060417","17:02:11","902672700","753273572","4.0.10.0","1","2","demographics","age","0","0","0","0","0","0","55","1","2821","0"
"348","348","060417","17:02:11","902672700","753273572","4.0.10.0","1","3","demographics","gender","0","0","0","0","0","0","Female","1","5451","0"
"349","349","060417","17:02:20","71707358","326682899","4.0.10.0","1","2","demographics","age","0","0","0","0","0","0","50","1","6015","0"
"350","350","060417","17:02:20","71707358","326682899","4.0.10.0","1","3","demographics","gender","0","0","0","0","0","0","Male","1","6012","0"
"351","351","060417","17:00:38","615461986","971838156","4.0.10.0","1","2","demographics","age","0","0","0","0","0","0","46","1","3882","0"
"352","352","060417","17:00:38","615461986","971838156","4.0.10.0","1","3","demographics","gender","0","0","0","0","0","0","male","1","4953","0"
"353","353","060417","11:59:37","741655839","182253053","4.0.10.0","1","2","demographics","age","0","0","0","0","0","0","53","1","11167","0"
"354","354","060417","11:59:37","741655839","182253053","4.0.10.0","1","3","demographics","gender","0","0","0","0","0","0","female","1","17836","0"
"355","355","060417","17:02:11","877597703","285512685","4.0.10.0","1","2","demographics","age","0","0","0","0","0","0","43","1","4216","0"
"356","356","060417","17:02:11","877597703","285512685","4.0.10.0","1","3","demographics","gender","0","0","0","0","0","0","Female","1","4348","0"
"357","357","060417","11:01:49","22665378","375743512","4.0.10.0","1","2","demographics","age","0","0","0","0","0","0","24","1","2033","0"
"358","358","060417","11:01:49","22665378","375743512","4.0.10.0","1","3","demographics","gender","0","0","0","0","0","0","Male","1","3251","0"
"359","359","060417","17:06:23","350353723","326503556","4.0.10.0","1","2","demographics","age","0","0","0","0","0","0","37","1","4129","0"
"360","360","060417","17:06:23","350353723","326503556","4.0.10.0","1","3","demographics","gender","0","0","0","0","0","0","M","1","2792","0"
"361","361","060417","17:00:46","572028607","609462283","4.0.10.0","1","2","demographics","age","0","0","0","0","0","0","30","1","3482","0"
"362","362","060417","17:00:46","572028607","609462283","4.0.10.0","1","3","demographics","gender","0","0","0","0","0","0","female","1","4862","0"
"363","363","060417","17:01:36","371472919","104576018","4.0.10.0","1","2","demographics","age","0","0","0","0","0","0","44","1","3935","0"
"364","364","060417","17:01:36","371472919","104576018","4.0.10.0","1","3","demographics","gender","0","0","0","0","0","0","female","1","6195","0"
"365","365","060417","17:00:31","60265033","805218689","4.0.10.0","1","2","demographics","age","0","0","0","0","0","0","25","1","3952","0"
"366","366","060417","17:00:31","60265033","805218689","4.0.10.0","1","3","demographics","gender","0","0","0","0","0","0","Male","1","13496","0"
"367","367","060417","12:00:16","193479138","651693740","4.0.10.0","1","2","demographics","age","0","0","0","0","0","0","34","1","5128","0"
"368","368","060417","12:00:16","193479138","651693740","4.0.10.0","1","3","demographics","gender","0","0","0","0","0","0","Male","1","3699","0"
"369","369","060417","17:00:34","215030493","955735831","4.0.10.0","1","2","demographics","age","0","0","0","0","0","0","36","1","2729","0"
"370","370","060417","17:00:34","215030493","955735831","4.0.10.0","1","3","demographics","gender","0","0","0","0","0","0","Male","1","3718","0"
"371","371","060417","16:59:07","356450479","356154222","4.0.10.0","1","2","demographics","age","0","0","0","0","0","0","25","1","4841","0"
"372","372","060417","16:59:07","356450479","356154222","4.0.10.0","1","3","demographics","gender","0","0","0","0","0","0","Male","1","2976","0"
"373","373","060417","16:59:44","442123460","170624215","4.0.10.0","1","2","demographics","age","0","0","0","0","0","0","63","1","4110","0"
"374","374","060417","16:59:44","442123460","170624215","4.0.10.0","1","3","demographics","gender","0","0","0","0","0","0","Male","1","9092","0"
"375","375","060417","16:59:41","102444424","305063059","4.0.10.0","1","2","demographics","age","0","0","0","0","0","0","25","1","3718","0"
"376","376","060417","16:59:41","102444424","305063059","4.0.10.0","1","3","demographics","gender","0","0","0","0","0","0","Male","1","4032","0"
"377","377","060417","16:59:45","118915971","288591512","4.0.10.0","1","2","demographics","age","0","0","0","0","0","0","30","1","5436","0"
"378","378","060417","16:59:45","118915971","288591512","4.0.10.0","1","3","demographics","gender","0","0","0","0","0","0","Male","1","6506","0"
"379","379","060417","16:58:41","35438930","106171559","4.0.10.0","1","2","demographics","age","0","0","0","0","0","0","31","1","3222","0"
"380","380","060417","16:58:41","35438930","106171559","4.0.10.0","1","3","demographics","gender","0","0","0","0","0","0","Female","1","8088","0"
"381","381","060417","09:59:14","692047167","458687872","4.0.10.0","1","2","demographics","age","0","0","0","0","0","0","22","1","1937","0"
"382","382","060417","09:59:14","692047167","458687872","4.0.10.0","1","3","demographics","gender","0","0","0","0","0","0","male","1","3793","0"
"383","383","060417","11:58:30","948069336","803804784","4.0.10.0","1","2","demographics","age","0","0","0","0","0","0","61","1","5025","0"
"384","384","060417","11:58:30","948069336","803804784","4.0.10.0","1","3","demographics","gender","0","0","0","0","0","0","Male","1","5190","0"
"385","385","060417","16:58:24","237866475","133708202","4.0.10.0","1","2","demographics","age","0","0","0","0","0","0","61","1","4046","0"
"386","386","060417","16:58:24","237866475","133708202","4.0.10.0","1","3","demographics","gender","0","0","0","0","0","0","female","1","6372","0"
"387","387","060417","12:58:43","871096110","965231752","4.0.10.0","1","2","demographics","age","0","0","0","0","0","0","18","1","3284","0"
"388","388","060417","12:58:43","871096110","965231752","4.0.10.0","1","3","demographics","gender","0","0","0","0","0","0","Male","1","4183","0"
"389","389","060417","16:58:33","201435417","643737462","4.0.10.0","1","2","demographics","age","0","0","0","0","0","0","35","1","3825","0"
"390","390","060417","16:58:33","201435417","643737462","4.0.10.0","1","3","demographics","gender","0","0","0","0","0","0","male","1","4185","0"
"391","391","060417","16:58:29","248375471","123199206","4.0.10.0","1","2","demographics","age","0","0","0","0","0","0","30","1","7028","0"
"392","392","060417","16:58:29","248375471","123199206","4.0.10.0","1","3","demographics","gender","0","0","0","0","0","0","","1","2960","0"
"393","393","060417","16:58:27","975720504","293041979","4.0.10.0","1","2","demographics","age","0","0","0","0","0","0","39","1","3380","0"
"394","394","060417","16:58:27","975720504","293041979","4.0.10.0","1","3","demographics","gender","0","0","0","0","0","0","Male","1","3374","0"
"395","395","060417","11:57:16","855589275","232519460","4.0.10.0","1","2","demographics","age","0","0","0","0","0","0","19","1","3404","0"
"396","396","060417","11:57:16","855589275","232519460","4.0.10.0","1","3","demographics","gender","0","0","0","0","0","0","male","1","3844","0"
"397","397","060417","16:57:30","16802993","916633997","4.0.10.0","1","2","demographics","age","0","0","0","0","0","0","38","1","5841","0"
"398","398","060417","16:57:30","16802993","916633997","4.0.10.0","1","3","demographics","gender","0","0","0","0","0","0","Female","1","5363","0"
"399","399","060417","16:57:28","874716593","824353542","4.0.10.0","1","2","demographics","age","0","0","0","0","0","0","41","1","5875","0"
"400","400","060417","16:57:28","874716593","824353542","4.0.10.0","1","3","demographics","gender","0","0","0","0","0","0","male","1","6910","0"
"401","401","060417","22:57:20","931554416","41751691","4.0.10.0","1","2","demographics","age","0","0","0","0","0","0","39","1","7493","0"
"402","402","060417","22:57:20","931554416","41751691","4.0.10.0","1","3","demographics","gender","0","0","0","0","0","0","Male","1","10673","0"
"403","403","060417","16:57:22","869871165","541895384","4.0.10.0","1","2","demographics","age","0","0","0","0","0","0","29","1","3486","0"
"404","404","060417","16:57:22","869871165","541895384","4.0.10.0","1","3","demographics","gender","0","0","0","0","0","0","male","1","3975","0"
"405","405","060417","16:56:56","80461874","924170369","4.0.10.0","1","2","demographics","age","0","0","0","0","0","0","41","1","4996","0"
"406","406","060417","16:56:56","80461874","924170369","4.0.10.0","1","3","demographics","gender","0","0","0","0","0","0","female","1","14671","0"
"407","407","060417","10:56:06","218359527","778213246","4.0.10.0","1","2","demographics","age","0","0","0","0","0","0","59","1","3528","0"
"408","408","060417","10:56:06","218359527","778213246","4.0.10.0","1","3","demographics","gender","0","0","0","0","0","0","male","1","5573","0"
"409","409","060417","16:56:02","884973471","202818504","4.0.10.0","1","2","demographics","age","0","0","0","0","0","0","42","1","3773","0"
"410","410","060417","16:56:02","884973471","202818504","4.0.10.0","1","3","demographics","gender","0","0","0","0","0","0","male","1","4076","0"
"411","411","060417","16:56:49","230732585","635928974","4.0.10.0","1","2","demographics","age","0","0","0","0","0","0","54","1","3330","0"
"412","412","060417","16:56:49","230732585","635928974","4.0.10.0","1","3","demographics","gender","0","0","0","0","0","0","female","1","7500","0"
"413","413","060417","16:56:36","1332888","108362546","4.0.10.0","1","2","demographics","age","0","0","0","0","0","0","27","1","2993","0"
"414","414","060417","16:56:36","1332888","108362546","4.0.10.0","1","3","demographics","gender","0","0","0","0","0","0","Male","1","3187","0"
"415","415","060417","11:56:10","581003830","568262582","4.0.10.0","1","2","demographics","age","0","0","0","0","0","0","32","1","4093","0"
"416","416","060417","11:56:10","581003830","568262582","4.0.10.0","1","3","demographics","gender","0","0","0","0","0","0","Male","1","3201","0"
"417","417","060417","11:55:34","627685109","689885672","4.0.10.0","1","2","demographics","age","0","0","0","0","0","0","21","1","10013","0"
"418","418","060417","11:55:34","627685109","689885672","4.0.10.0","1","3","demographics","gender","0","0","0","0","0","0","male","1","6746","0"
"419","419","060417","16:55:34","768942290","319438603","4.0.10.0","1","2","demographics","age","0","0","0","0","0","0","30","1","3473","0"
"420","420","060417","16:55:34","768942290","319438603","4.0.10.0","1","3","demographics","gender","0","0","0","0","0","0","Male","1","4435","0"
"421","421","060417","16:55:35","1332888","108362546","4.0.10.0","1","2","demographics","age","0","0","0","0","0","0","27","1","3395","0"
"422","422","060417","16:55:35","1332888","108362546","4.0.10.0","1","3","demographics","gender","0","0","0","0","0","0","Male","1","3154","0"
"423","423","060417","16:55:12","110202787","153953040","4.0.10.0","1","2","demographics","age","0","0","0","0","0","0","62","1","6759","0"
"424","424","060417","16:55:12","110202787","153953040","4.0.10.0","1","3","demographics","gender","0","0","0","0","0","0","female","1","5486","0"
"425","425","060417","16:55:12","63741557","521896519","4.0.10.0","1","2","demographics","age","0","0","0","0","0","0","34","1","2983","0"
"426","426","060417","16:55:12","63741557","521896519","4.0.10.0","1","3","demographics","gender","0","0","0","0","0","0","female","1","4860","0"
"427","427","060417","16:55:07","839895865","925534871","4.0.10.0","1","2","demographics","age","0","0","0","0","0","0","46","1","3743","0"
"428","428","060417","16:55:07","839895865","925534871","4.0.10.0","1","3","demographics","gender","0","0","0","0","0","0","Male","1","4802","0"
"429","429","060417","16:54:42","248764852","295535480","4.0.10.0","1","2","demographics","age","0","0","0","0","0","0","63","1","2876","0"
"430","430","060417","16:54:42","248764852","295535480","4.0.10.0","1","3","demographics","gender","0","0","0","0","0","0","Female","1","4610","0"
"431","431","060417","10:54:22","59139213","529778266","4.0.10.0","1","2","demographics","age","0","0","0","0","0","0","32","1","3718","0"
"432","432","060417","10:54:22","59139213","529778266","4.0.10.0","1","3","demographics","gender","0","0","0","0","0","0","Male","1","4340","0"
"433","433","060417","10:54:16","985230320","819771406","4.0.10.0","1","2","demographics","age","0","0","0","0","0","0","30","1","3220","0"
"434","434","060417","10:54:16","985230320","819771406","4.0.10.0","1","3","demographics","gender","0","0","0","0","0","0","male","1","3493","0"
"435","435","060417","16:54:02","6389272","578969310","4.0.10.0","1","2","demographics","age","0","0","0","0","0","0","51","1","3598","0"
"436","436","060417","16:54:02","6389272","578969310","4.0.10.0","1","3","demographics","gender","0","0","0","0","0","0","female","1","4780","0"
"437","437","060417","16:53:38","996819172","557194628","4.0.10.0","1","2","demographics","age","0","0","0","0","0","0","45","1","3910","0"
"438","438","060417","16:53:38","996819172","557194628","4.0.10.0","1","3","demographics","gender","0","0","0","0","0","0","male","1","5642","0"
"439","439","060417","16:53:28","137963942","721351104","4.0.10.0","1","2","demographics","age","0","0","0","0","0","0","34","1","2980","0"
"440","440","060417","16:53:28","137963942","721351104","4.0.10.0","1","3","demographics","gender","0","0","0","0","0","0","Male","1","3963","0"
"441","441","060417","16:53:11","536632885","586906512","4.0.10.0","1","2","demographics","age","0","0","0","0","0","0","28","1","4113","0"
"442","442","060417","16:53:11","536632885","586906512","4.0.10.0","1","3","demographics","gender","0","0","0","0","0","0","Female","1","6760","0"
"443","443","060417","10:53:27","209317706","174923111","4.0.10.0","1","2","demographics","age","0","0","0","0","0","0","35","1","5655","0"
"444","444","060417","10:53:27","209317706","174923111","4.0.10.0","1","3","demographics","gender","0","0","0","0","0","0","MALE","1","3410","0"
"445","445","060417","16:53:22","329590569","457060596","4.0.10.0","1","2","demographics","age","0","0","0","0","0","0","34","1","4283","0"
"446","446","060417","16:53:22","329590569","457060596","4.0.10.0","1","3","demographics","gender","0","0","0","0","0","0","female","1","4360","0"
"447","447","060417","11:52:50","684878915","395566549","4.0.10.0","1","2","demographics","age","0","0","0","0","0","0","28","1","4056","0"
"448","448","060417","11:52:50","684878915","395566549","4.0.10.0","1","3","demographics","gender","0","0","0","0","0","0","Male","1","3651","0"
"449","449","060417","16:51:18","188907763","382308651","4.0.10.0","1","2","demographics","age","0","0","0","0","0","0","27","1","4678","0"
"450","450","060417","16:51:18","188907763","382308651","4.0.10.0","1","3","demographics","gender","0","0","0","0","0","0","Male","1","4488","0"
"451","451","060417","16:52:38","6373787","485285880","4.0.10.0","1","2","demographics","age","0","0","0","0","0","0","54","1","3124","0"
"452","452","060417","16:52:38","6373787","485285880","4.0.10.0","1","3","demographics","gender","0","0","0","0","0","0","female","1","6290","0"
"453","453","060417","16:52:34","719765141","840137840","4.0.10.0","1","2","demographics","age","0","0","0","0","0","0","36","1","6310","0"
"454","454","060417","16:52:34","719765141","840137840","4.0.10.0","1","3","demographics","gender","0","0","0","0","0","0","Male","1","6720","0"
"455","455","060417","11:52:43","26091201","144675135","4.0.10.0","1","2","demographics","age","0","0","0","0","0","0","41","1","3347","0"
"456","456","060417","11:52:43","26091201","144675135","4.0.10.0","1","3","demographics","gender","0","0","0","0","0","0","female","1","3714","0"
"457","457","060417","11:52:25","684618053","396106905","4.0.10.0","1","2","demographics","age","0","0","0","0","0","0","45","1","2544","0"
"458","458","060417","11:52:25","684618053","396106905","4.0.10.0","1","3","demographics","gender","0","0","0","0","0","0","m","1","3574","0"
"459","459","060417","16:52:30","169063648","401854638","4.0.10.0","1","2","demographics","age","0","0","0","0","0","0","40","1","3574","0"
"460","460","060417","16:52:30","169063648","401854638","4.0.10.0","1","3","demographics","gender","0","0","0","0","0","0","female","1","6389","0"
"461","461","060417","10:52:11","246623360","714016607","4.0.10.0","1","2","demographics","age","0","0","0","0","0","0","20","1","3562","0"
"462","462","060417","10:52:11","246623360","714016607","4.0.10.0","1","3","demographics","gender","0","0","0","0","0","0","Male","1","3532","0"
"463","463","060417","21:37:23","449129732","408698055","4.0.10.0","1","2","demographics","age","0","0","0","0","0","0","25","1","3726","0"
"464","464","060417","21:37:23","449129732","408698055","4.0.10.0","1","3","demographics","gender","0","0","0","0","0","0","Male","1","4790","0"
"465","465","060417","16:51:59","475065590","442964686","4.0.10.0","1","2","demographics","age","0","0","0","0","0","0","34","1","5260","0"
"466","466","060417","16:51:59","475065590","442964686","4.0.10.0","1","3","demographics","gender","0","0","0","0","0","0","male","1","5077","0"
"467","467","060417","16:50:59","500182835","418126935","4.0.10.0","1","2","demographics","age","0","0","0","0","0","0","37","1","2583","0"
"468","468","060417","16:50:59","500182835","418126935","4.0.10.0","1","3","demographics","gender","0","0","0","0","0","0","Male","1","3939","0"
"469","469","060417","16:49:02","979988578","706706144","4.0.10.0","1","2","demographics","age","0","0","0","0","0","0","44","1","4299","0"
"470","470","060417","16:49:02","979988578","706706144","4.0.10.0","1","3","demographics","gender","0","0","0","0","0","0","Male","1","9635","0"
"471","471","060417","16:51:22","679087363","766813261","4.0.10.0","1","2","demographics","age","0","0","0","0","0","0","37","1","5836","0"
"472","472","060417","16:51:22","679087363","766813261","4.0.10.0","1","3","demographics","gender","0","0","0","0","0","0","male","1","3543","0"
"473","473","060417","16:51:36","399361418","835823933","4.0.10.0","1","2","demographics","age","0","0","0","0","0","0","23","1","4565","0"
"474","474","060417","16:51:36","399361418","835823933","4.0.10.0","1","3","demographics","gender","0","0","0","0","0","0","female","1","4169","0"
"475","475","060517","00:49:28","29152710","58930068","4.0.10.0","1","2","demographics","age","0","0","0","0","0","0","24","1","3212","0"
"476","476","060517","00:49:28","29152710","58930068","4.0.10.0","1","3","demographics","gender","0","0","0","0","0","0","female","1","4626","0"
"477","477","060417","10:51:05","493662954","519814293","4.0.10.0","1","2","demographics","age","0","0","0","0","0","0","38","1","2482","0"
"478","478","060417","10:51:05","493662954","519814293","4.0.10.0","1","3","demographics","gender","0","0","0","0","0","0","MAle","1","3095","0"
"479","479","060417","16:51:19","505741942","457149023","4.0.10.0","1","2","demographics","age","0","0","0","0","0","0","43","1","2254","0"
"480","480","060417","16:51:19","505741942","457149023","4.0.10.0","1","3","demographics","gender","0","0","0","0","0","0","Male","1","2933","0"
"481","481","060417","16:51:18","268955007","302261407","4.0.10.0","1","2","demographics","age","0","0","0","0","0","0","36","1","2449","0"
"482","482","060417","16:51:18","268955007","302261407","4.0.10.0","1","3","demographics","gender","0","0","0","0","0","0","Male","1","2487","0"
"483","483","060417","09:48:42","135224529","89836482","4.0.10.0","1","2","demographics","age","0","0","0","0","0","0","62","1","6367","0"
"484","484","060417","09:48:42","135224529","89836482","4.0.10.0","1","3","demographics","gender","0","0","0","0","0","0","male","1","5431","0"
"485","485","060417","16:50:26","597796677","856163418","4.0.10.0","1","2","demographics","age","0","0","0","0","0","0","50","1","3547","0"
"486","486","060417","16:50:26","597796677","856163418","4.0.10.0","1","3","demographics","gender","0","0","0","0","0","0","male","1","4755","0"
"487","487","060417","16:50:31","901321083","590338572","4.0.10.0","1","2","demographics","age","0","0","0","0","0","0","33","1","4259","0"
"488","488","060417","16:50:31","901321083","590338572","4.0.10.0","1","3","demographics","gender","0","0","0","0","0","0","Female","1","5063","0"
"489","489","060417","16:50:01","568045707","972422245","4.0.10.0","1","2","demographics","age","0","0","0","0","0","0","30","1","3111","0"
"490","490","060417","16:50:01","568045707","972422245","4.0.10.0","1","3","demographics","gender","0","0","0","0","0","0","Female","1","4484","0"
"491","491","060417","16:50:19","663260259","655201462","4.0.10.0","1","2","demographics","age","0","0","0","0","0","0","26","1","2348","0"
"492","492","060417","16:50:19","663260259","655201462","4.0.10.0","1","3","demographics","gender","0","0","0","0","0","0","female","1","3270","0"
"493","493","060417","16:48:33","177862713","711291211","4.0.10.0","1","2","demographics","age","0","0","0","0","0","0","26","1","3187","0"
"494","494","060417","16:48:33","177862713","711291211","4.0.10.0","1","3","demographics","gender","0","0","0","0","0","0","Male","1","3114","0"
"495","495","060417","16:48:39","132568307","691104660","4.0.10.0","1","2","demographics","age","0","0","0","0","0","0","54","1","4050","0"
"496","496","060417","16:48:39","132568307","691104660","4.0.10.0","1","3","demographics","gender","0","0","0","0","0","0","Male","1","4714","0"
"497","497","060417","16:49:06","670122640","126354750","4.0.10.0","1","2","demographics","age","0","0","0","0","0","0","63","1","4692","0"
"498","498","060417","16:49:06","670122640","126354750","4.0.10.0","1","3","demographics","gender","0","0","0","0","0","0","Male","1","5089","0"
"499","499","060417","16:48:57","713997601","220631899","4.0.10.0","1","2","demographics","age","0","0","0","0","0","0","24","1","3432","0"
"500","500","060417","16:48:57","713997601","220631899","4.0.10.0","1","3","demographics","gender","0","0","0","0","0","0","Female","1","2891","0"
"501","501","060417","16:46:11","431660649","939925246","4.0.10.0","1","2","demographics","age","0","0","0","0","0","0","48","1","18203","0"
"502","502","060417","16:46:11","431660649","939925246","4.0.10.0","1","3","demographics","gender","0","0","0","0","0","0","Male","1","5716","0"
"503","503","060417","16:48:02","921692041","342463773","4.0.10.0","1","2","demographics","age","0","0","0","0","0","0","33","1","3220","0"
"504","504","060417","16:48:02","921692041","342463773","4.0.10.0","1","3","demographics","gender","0","0","0","0","0","0","female","1","9330","0"
"505","505","060417","16:48:33","713838556","290514193","4.0.10.0","1","2","demographics","age","0","0","0","0","0","0","25","1","3586","0"
"506","506","060417","16:48:33","713838556","290514193","4.0.10.0","1","3","demographics","gender","0","0","0","0","0","0","female","1","3807","0"
"507","507","060417","16:48:37","825937920","682614976","4.0.10.0","1","2","demographics","age","0","0","0","0","0","0","31","1","2953","0"
"508","508","060417","16:48:37","825937920","682614976","4.0.10.0","1","3","demographics","gender","0","0","0","0","0","0","Female","1","4660","0"
"509","509","060417","16:49:01","857402634","244636852","4.0.10.0","1","2","demographics","age","0","0","0","0","0","0","27","1","5861","0"
"510","510","060417","16:49:01","857402634","244636852","4.0.10.0","1","3","demographics","gender","0","0","0","0","0","0","male","1","4293","0"
"511","511","060417","11:49:08","664719079","132037807","4.0.10.0","1","2","demographics","age","0","0","0","0","0","0","33","1","1810","0"
"512","512","060417","11:49:08","664719079","132037807","4.0.10.0","1","3","demographics","gender","0","0","0","0","0","0","F","1","1519","0"
"513","513","060417","11:48:20","812019091","696533806","4.0.10.0","1","2","demographics","age","0","0","0","0","0","0","34","1","4480","0"
"514","514","060417","11:48:20","812019091","696533806","4.0.10.0","1","3","demographics","gender","0","0","0","0","0","0","female","1","11981","0"
"515","515","060417","12:48:19","987118043","124933051","4.0.10.0","1","2","demographics","age","0","0","0","0","0","0","42","1","5154","0"
"516","516","060417","12:48:19","987118043","124933051","4.0.10.0","1","3","demographics","gender","0","0","0","0","0","0","Male","1","6281","0"
"517","517","060417","09:45:13","782924188","651600877","4.0.10.0","1","2","demographics","age","0","0","0","0","0","0","28","1","73495","0"
"518","518","060417","09:45:13","782924188","651600877","4.0.10.0","1","3","demographics","gender","0","0","0","0","0","0","Male","1","4575","0"
"519","519","060417","16:48:07","776284644","701531034","4.0.10.0","1","2","demographics","age","0","0","0","0","0","0","49","1","3732","0"
"520","520","060417","16:48:07","776284644","701531034","4.0.10.0","1","3","demographics","gender","0","0","0","0","0","0","female","1","4467","0"
"521","521","060417","11:47:44","48307159","263374453","4.0.10.0","1","2","demographics","age","0","0","0","0","0","0","31","1","2460","0"
"522","522","060417","11:47:44","48307159","263374453","4.0.10.0","1","3","demographics","gender","0","0","0","0","0","0","male","1","3500","0"
"523","523","060417","11:48:38","728035459","168502242","4.0.10.0","1","2","demographics","age","0","0","0","0","0","0","40","1","2955","0"
"524","524","060417","11:48:38","728035459","168502242","4.0.10.0","1","3","demographics","gender","0","0","0","0","0","0","female","1","5256","0"
"525","525","060417","16:48:07","320134009","94271740","4.0.10.0","1","2","demographics","age","0","0","0","0","0","0","42","1","2897","0"
"526","526","060417","16:48:07","320134009","94271740","4.0.10.0","1","3","demographics","gender","0","0","0","0","0","0","Female","1","4569","0"
"527","527","060417","16:47:35","50785345","260616773","4.0.10.0","1","2","demographics","age","0","0","0","0","0","0","51","1","4276","0"
"528","528","060417","16:47:35","50785345","260616773","4.0.10.0","1","3","demographics","gender","0","0","0","0","0","0","female","1","13849","0"
"529","529","060417","11:46:08","751326627","824485211","4.0.10.0","1","2","demographics","age","0","0","0","0","0","0","31","1","2354","0"
"530","530","060417","11:46:08","751326627","824485211","4.0.10.0","1","3","demographics","gender","0","0","0","0","0","0","male","1","3459","0"
"531","531","060417","16:47:40","933988427","986088085","4.0.10.0","1","2","demographics","age","0","0","0","0","0","0","57","1","5624","0"
"532","532","060417","16:47:40","933988427","986088085","4.0.10.0","1","3","demographics","gender","0","0","0","0","0","0","female","1","6931","0"
"533","533","060417","16:47:38","559074412","445154297","4.0.10.0","1","2","demographics","age","0","0","0","0","0","0","54","1","3532","0"
"534","534","060417","16:47:38","559074412","445154297","4.0.10.0","1","3","demographics","gender","0","0","0","0","0","0","Male","1","6359","0"
"535","535","060417","16:47:35","18299042","932514700","4.0.10.0","1","2","demographics","age","0","0","0","0","0","0","32","1","3136","0"
"536","536","060417","16:47:35","18299042","932514700","4.0.10.0","1","3","demographics","gender","0","0","0","0","0","0","female","1","3645","0"
"537","537","060417","11:46:25","842669610","116203603","4.0.10.0","1","2","demographics","age","0","0","0","0","0","0","36","1","4622","0"
"538","538","060417","11:46:25","842669610","116203603","4.0.10.0","1","3","demographics","gender","0","0","0","0","0","0","female","1","8141","0"
"539","539","060417","11:46:27","11409811","252746017","4.0.10.0","1","2","demographics","age","0","0","0","0","0","0","37","1","5300","0"
"540","540","060417","11:46:27","11409811","252746017","4.0.10.0","1","3","demographics","gender","0","0","0","0","0","0","Male","1","4945","0"
"541","541","060417","16:46:47","136348193","257017186","4.0.10.0","1","2","demographics","age","0","0","0","0","0","0","21","1","4019","0"
"542","542","060417","16:46:47","136348193","257017186","4.0.10.0","1","3","demographics","gender","0","0","0","0","0","0","Male ","1","3750","0"
"543","543","060417","10:47:14","164608725","60750413","4.0.10.0","1","2","demographics","age","0","0","0","0","0","0","29","1","4881","0"
"544","544","060417","10:47:14","164608725","60750413","4.0.10.0","1","3","demographics","gender","0","0","0","0","0","0","male","1","3733","0"
"545","545","060417","16:46:39","108520775","404453421","4.0.10.0","1","2","demographics","age","0","0","0","0","0","0","58","1","5726","0"
"546","546","060417","16:46:39","108520775","404453421","4.0.10.0","1","3","demographics","gender","0","0","0","0","0","0","male","1","5184","0"
"547","547","060417","16:46:26","443458155","584142627","4.0.10.0","1","2","demographics","age","0","0","0","0","0","0","50","1","4599","0"
"548","548","060417","16:46:26","443458155","584142627","4.0.10.0","1","3","demographics","gender","0","0","0","0","0","0","female","1","4834","0"
"549","549","060417","16:47:10","191259376","634653356","4.0.10.0","1","2","demographics","age","0","0","0","0","0","0","48","1","4122","0"
"550","550","060417","16:47:10","191259376","634653356","4.0.10.0","1","3","demographics","gender","0","0","0","0","0","0","Female","1","4970","0"
"551","551","060417","16:46:27","26171434","61929977","4.0.10.0","1","2","demographics","age","0","0","0","0","0","0","34","1","3148","0"
"552","552","060417","16:46:27","26171434","61929977","4.0.10.0","1","3","demographics","gender","0","0","0","0","0","0","female","1","5065","0"
"553","553","060417","16:46:12","663244614","770982324","4.0.10.0","1","2","demographics","age","0","0","0","0","0","0","55","1","5430","0"
"554","554","060417","16:46:12","663244614","770982324","4.0.10.0","1","3","demographics","gender","0","0","0","0","0","0","female","1","4160","0"
"555","555","060417","16:46:04","238633163","452657010","4.0.10.0","1","2","demographics","age","0","0","0","0","0","0","25","1","3916","0"
"556","556","060417","16:46:04","238633163","452657010","4.0.10.0","1","3","demographics","gender","0","0","0","0","0","0","Male","1","3199","0"
"557","557","060417","16:46:28","119483849","641536845","4.0.10.0","1","2","demographics","age","0","0","0","0","0","0","57","1","4381","0"
"558","558","060417","16:46:28","119483849","641536845","4.0.10.0","1","3","demographics","gender","0","0","0","0","0","0","female","1","7804","0"
"559","559","060417","16:45:24","451166222","14398096","4.0.10.0","1","2","demographics","age","0","0","0","0","0","0","22","1","1949","0"
"560","560","060417","16:45:24","451166222","14398096","4.0.10.0","1","3","demographics","gender","0","0","0","0","0","0","female","1","3140","0"
"561","561","060417","16:46:01","750279222","683947715","4.0.10.0","1","2","demographics","age","0","0","0","0","0","0","41","1","2696","0"
"562","562","060417","16:46:01","750279222","683947715","4.0.10.0","1","3","demographics","gender","0","0","0","0","0","0","male","1","3786","0"
"563","563","060417","16:46:01","461146531","735056747","4.0.10.0","1","2","demographics","age","0","0","0","0","0","0","33","1","6024","0"
"564","564","060417","16:46:01","461146531","735056747","4.0.10.0","1","3","demographics","gender","0","0","0","0","0","0","male","1","5083","0"
"565","565","060417","16:45:30","775444143","839077610","4.0.10.0","1","2","demographics","age","0","0","0","0","0","0","40","1","7757","0"
"566","566","060417","16:45:30","775444143","839077610","4.0.10.0","1","3","demographics","gender","0","0","0","0","0","0","Male","1","8981","0"
"567","567","060417","16:45:14","197957387","188050185","4.0.10.0","1","2","demographics","age","0","0","0","0","0","0","36","1","3134","0"
"568","568","060417","16:45:14","197957387","188050185","4.0.10.0","1","3","demographics","gender","0","0","0","0","0","0","Female","1","3334","0"
"569","569","060417","11:45:58","782934597","831270395","4.0.10.0","1","2","demographics","age","0","0","0","0","0","0","24","1","2089","0"
"570","570","060417","11:45:58","782934597","831270395","4.0.10.0","1","3","demographics","gender","0","0","0","0","0","0","male","1","2667","0"
"571","571","060417","11:44:41","433692170","821226337","4.0.10.0","1","2","demographics","age","0","0","0","0","0","0","56","1","3877","0"
"572","572","060417","11:44:41","433692170","821226337","4.0.10.0","1","3","demographics","gender","0","0","0","0","0","0","male","1","5604","0"
"573","573","060417","16:45:32","675845226","770055398","4.0.10.0","1","2","demographics","age","0","0","0","0","0","0","55","1","5377","0"
"574","574","060417","16:45:32","675845226","770055398","4.0.10.0","1","3","demographics","gender","0","0","0","0","0","0","Male","1","5816","0"
"575","575","060417","16:44:33","951109345","235267708","4.0.10.0","1","2","demographics","age","0","0","0","0","0","0","47","1","4536","0"
"576","576","060417","16:44:33","951109345","235267708","4.0.10.0","1","3","demographics","gender","0","0","0","0","0","0","female","1","9253","0"
"577","577","060417","16:45:34","728404114","705822824","4.0.10.0","1","2","demographics","age","0","0","0","0","0","0","28","1","3146","0"
"578","578","060417","16:45:34","728404114","705822824","4.0.10.0","1","3","demographics","gender","0","0","0","0","0","0","Male","1","3818","0"
"579","579","060417","11:44:04","779585569","477099693","4.0.10.0","1","2","demographics","age","0","0","0","0","0","0","35","1","12782","0"
"580","580","060417","11:44:04","779585569","477099693","4.0.10.0","1","3","demographics","gender","0","0","0","0","0","0","female","1","4794","0"
"581","581","060417","16:45:32","325403028","792537247","4.0.10.0","1","2","demographics","age","0","0","0","0","0","0","26","1","2362","0"
"582","582","060417","16:45:32","325403028","792537247","4.0.10.0","1","3","demographics","gender","0","0","0","0","0","0","female","1","3452","0"
"583","583","060417","16:45:31","733147810","417009541","4.0.10.0","1","2","demographics","age","0","0","0","0","0","0","32","1","3835","0"
"584","584","060417","16:45:31","733147810","417009541","4.0.10.0","1","3","demographics","gender","0","0","0","0","0","0","Male","1","4304","0"
"585","585","060417","16:45:21","761067712","673159225","4.0.10.0","1","2","demographics","age","0","0","0","0","0","0","20","1","4131","0"
"586","586","060417","16:45:21","761067712","673159225","4.0.10.0","1","3","demographics","gender","0","0","0","0","0","0","Male","1","3508","0"
"587","587","060417","16:45:54","2966194","589750132","4.0.10.0","1","2","demographics","age","0","0","0","0","0","0","48","1","7425","0"
"588","588","060417","16:45:54","2966194","589750132","4.0.10.0","1","3","demographics","gender","0","0","0","0","0","0","male","1","6790","0"
"589","589","060417","16:45:04","794010806","640216132","4.0.10.0","1","2","demographics","age","0","0","0","0","0","0","27","1","3124","0"
"590","590","060417","16:45:04","794010806","640216132","4.0.10.0","1","3","demographics","gender","0","0","0","0","0","0","Male","1","3205","0"
"591","591","060417","16:45:03","674168770","307982340","4.0.10.0","1","2","demographics","age","0","0","0","0","0","0","36","1","3447","0"
"592","592","060417","16:45:03","674168770","307982340","4.0.10.0","1","3","demographics","gender","0","0","0","0","0","0","male","1","4042","0"
"593","593","060417","08:44:27","565573467","871493385","4.0.10.0","1","2","demographics","age","0","0","0","0","0","0","31","1","2379","0"
"594","594","060417","08:44:27","565573467","871493385","4.0.10.0","1","3","demographics","gender","0","0","0","0","0","0","Male","1","3718","0"
"595","595","060417","16:44:47","368514037","886404470","4.0.10.0","1","2","demographics","age","0","0","0","0","0","0","18","1","3951","0"
"596","596","060417","16:44:47","368514037","886404470","4.0.10.0","1","3","demographics","gender","0","0","0","0","0","0","female","1","3729","0"
"597","597","060417","16:44:24","273528836","844411439","4.0.10.0","1","2","demographics","age","0","0","0","0","0","0","56","1","4524","0"
"598","598","060417","16:44:24","273528836","844411439","4.0.10.0","1","3","demographics","gender","0","0","0","0","0","0","female","1","8628","0"
"599","599","060417","16:44:18","581380616","684851376","4.0.10.0","1","2","demographics","age","0","0","0","0","0","0","53","1","5363","0"
"600","600","060417","16:44:18","581380616","684851376","4.0.10.0","1","3","demographics","gender","0","0","0","0","0","0","male","1","4525","0"
"601","601","060417","16:44:15","400692651","976557668","4.0.10.0","1","2","demographics","age","0","0","0","0","0","0","50","1","3419","0"
"602","602","060417","16:44:15","400692651","976557668","4.0.10.0","1","3","demographics","gender","0","0","0","0","0","0","female","1","5399","0"
"603","603","060417","15:43:17","964858903","115866054","4.0.10.0","1","2","demographics","age","0","0","0","0","0","0","59","1","4884","0"
"604","604","060417","15:43:17","964858903","115866054","4.0.10.0","1","3","demographics","gender","0","0","0","0","0","0","Female","1","6617","0"
"605","605","060417","16:44:23","386345263","990923689","4.0.10.0","1","2","demographics","age","0","0","0","0","0","0","35","1","2967","0"
"606","606","060417","16:44:23","386345263","990923689","4.0.10.0","1","3","demographics","gender","0","0","0","0","0","0","Male","1","6188","0"
"607","607","060417","16:40:36","144450739","859777970","4.0.10.0","1","2","demographics","age","0","0","0","0","0","0","39","1","5876","0"
"608","608","060417","16:40:36","144450739","859777970","4.0.10.0","1","3","demographics","gender","0","0","0","0","0","0","male","1","4132","0"
"609","609","060417","16:43:53","673166633","593344854","4.0.10.0","1","2","demographics","age","0","0","0","0","0","0","23","1","4569","0"
"610","610","060417","16:43:53","673166633","593344854","4.0.10.0","1","3","demographics","gender","0","0","0","0","0","0","Male","1","2718","0"
"611","611","060417","16:39:12","29263071","497256242","4.0.10.0","1","2","demographics","age","0","0","0","0","0","0","38","1","4097","0"
"612","612","060417","16:39:12","29263071","497256242","4.0.10.0","1","3","demographics","gender","0","0","0","0","0","0","m","1","3674","0"
"613","613","060417","16:44:04","228802200","775426509","4.0.10.0","1","2","demographics","age","0","0","0","0","0","0","57","1","4497","0"
"614","614","060417","16:44:04","228802200","775426509","4.0.10.0","1","3","demographics","gender","0","0","0","0","0","0","female","1","7878","0"
"615","615","060417","11:43:04","708632575","375625892","4.0.10.0","1","2","demographics","age","0","0","0","0","0","0","41","1","3258","0"
"616","616","060417","11:43:04","708632575","375625892","4.0.10.0","1","3","demographics","gender","0","0","0","0","0","0","female","1","9676","0"
"617","617","060417","16:42:30","354444042","912384140","4.0.10.0","1","2","demographics","age","0","0","0","0","0","0","28","1","3096","0"
"618","618","060417","16:42:30","354444042","912384140","4.0.10.0","1","3","demographics","gender","0","0","0","0","0","0","male","1","3756","0"
"619","619","060417","10:42:48","782040658","895405525","4.0.10.0","1","2","demographics","age","0","0","0","0","0","0","29","1","6081","0"
"620","620","060417","10:42:48","782040658","895405525","4.0.10.0","1","3","demographics","gender","0","0","0","0","0","0","male","1","4703","0"
"621","621","060417","16:42:53","152067757","629263781","4.0.10.0","1","2","demographics","age","0","0","0","0","0","0","34","1","2609","0"
"622","622","060417","16:42:53","152067757","629263781","4.0.10.0","1","3","demographics","gender","0","0","0","0","0","0","Male","1","3742","0"
"623","623","060417","11:43:00","894503723","462816825","4.0.10.0","1","2","demographics","age","0","0","0","0","0","0","54","1","3172","0"
"624","624","060417","11:43:00","894503723","462816825","4.0.10.0","1","3","demographics","gender","0","0","0","0","0","0","male","1","6810","0"
"625","625","060417","16:42:23","50969122","647976986","4.0.10.0","1","2","demographics","age","0","0","0","0","0","0","18","1","5920","0"
"626","626","060417","16:42:23","50969122","647976986","4.0.10.0","1","3","demographics","gender","0","0","0","0","0","0","male","1","3320","0"
"627","627","060417","16:42:34","70101316","711230222","4.0.10.0","1","2","demographics","age","0","0","0","0","0","0","41","1","3873","0"
"628","628","060417","16:42:34","70101316","711230222","4.0.10.0","1","3","demographics","gender","0","0","0","0","0","0","female","1","4515","0"
"629","629","060417","16:42:07","810232481","411004218","4.0.10.0","1","2","demographics","age","0","0","0","0","0","0","21","1","3204","0"
"630","630","060417","16:42:07","810232481","411004218","4.0.10.0","1","3","demographics","gender","0","0","0","0","0","0","male","1","5074","0"
"631","631","060417","16:41:58","432400656","796790838","4.0.10.0","1","2","demographics","age","0","0","0","0","0","0","23","1","2077","0"
"632","632","060417","16:41:58","432400656","796790838","4.0.10.0","1","3","demographics","gender","0","0","0","0","0","0","female","1","3868","0"
"633","633","060417","16:42:36","248791510","837822628","4.0.10.0","1","2","demographics","age","0","0","0","0","0","0","53","1","2937","0"
"634","634","060417","16:42:36","248791510","837822628","4.0.10.0","1","3","demographics","gender","0","0","0","0","0","0","female","1","6104","0"
"635","635","060417","11:38:20","571192126","960962249","4.0.10.0","1","2","demographics","age","0","0","0","0","0","0","52","1","4455","0"
"636","636","060417","11:38:20","571192126","960962249","4.0.10.0","1","3","demographics","gender","0","0","0","0","0","0","male","1","8468","0"
"637","637","060417","16:40:22","195404303","323563750","4.0.10.0","1","2","demographics","age","0","0","0","0","0","0","33","1","2822","0"
"638","638","060417","16:40:22","195404303","323563750","4.0.10.0","1","3","demographics","gender","0","0","0","0","0","0","Male","1","3956","0"
"639","639","060417","16:42:12","398583464","530730367","4.0.10.0","1","2","demographics","age","0","0","0","0","0","0","24","1","3286","0"
"640","640","060417","16:42:12","398583464","530730367","4.0.10.0","1","3","demographics","gender","0","0","0","0","0","0","Male","1","5170","0"
"641","641","060417","16:42:11","381463493","60903635","4.0.10.0","1","2","demographics","age","0","0","0","0","0","0","28","1","4040","0"
"642","642","060417","16:42:11","381463493","60903635","4.0.10.0","1","3","demographics","gender","0","0","0","0","0","0","female","1","3814","0"
"643","643","060417","16:41:54","990890724","539751003","4.0.10.0","1","2","demographics","age","0","0","0","0","0","0","35","1","3188","0"
"644","644","060417","16:41:54","990890724","539751003","4.0.10.0","1","3","demographics","gender","0","0","0","0","0","0","female","1","3353","0"
"645","645","060417","16:42:02","872522504","348714195","4.0.10.0","1","2","demographics","age","0","0","0","0","0","0","45","1","3127","0"
"646","646","060417","16:42:02","872522504","348714195","4.0.10.0","1","3","demographics","gender","0","0","0","0","0","0","female","1","4056","0"
"647","647","060417","16:43:57","593585213","672926275","4.0.10.0","1","2","demographics","age","0","0","0","0","0","0","46","1","2594","0"
"648","648","060417","16:43:57","593585213","672926275","4.0.10.0","1","3","demographics","gender","0","0","0","0","0","0","female","1","4061","0"
"649","649","060417","16:41:09","805629999","871816184","4.0.10.0","1","2","demographics","age","0","0","0","0","0","0","38","1","4385","0"
"650","650","060417","16:41:09","805629999","871816184","4.0.10.0","1","3","demographics","gender","0","0","0","0","0","0","male","1","4894","0"
"651","651","060417","16:41:39","649814185","270262339","4.0.10.0","1","2","demographics","age","0","0","0","0","0","0","48","1","3843","0"
"652","652","060417","16:41:39","649814185","270262339","4.0.10.0","1","3","demographics","gender","0","0","0","0","0","0","Male","1","5869","0"
"653","653","060417","16:41:27","396792742","877270004","4.0.10.0","1","2","demographics","age","0","0","0","0","0","0","30","1","2558","0"
"654","654","060417","16:41:27","396792742","877270004","4.0.10.0","1","3","demographics","gender","0","0","0","0","0","0","Male","1","3744","0"
"655","655","060417","16:41:27","730630716","841163372","4.0.10.0","1","2","demographics","age","0","0","0","0","0","0","62","1","3677","0"
"656","656","060417","16:41:27","730630716","841163372","4.0.10.0","1","3","demographics","gender","0","0","0","0","0","0","female","1","6471","0"
"657","657","060417","11:41:19","378607268","850584226","4.0.10.0","1","2","demographics","age","0","0","0","0","0","0","33","1","3973","0"
"658","658","060417","11:41:19","378607268","850584226","4.0.10.0","1","3","demographics","gender","0","0","0","0","0","0","Male","1","5635","0"
"659","659","060417","16:40:34","224214270","40530475","4.0.10.0","1","2","demographics","age","0","0","0","0","0","0","43","1","4065","0"
"660","660","060417","16:40:34","224214270","40530475","4.0.10.0","1","3","demographics","gender","0","0","0","0","0","0","male","1","3120","0"
"661","661","060417","16:40:58","318553201","910638292","4.0.10.0","1","2","demographics","age","0","0","0","0","0","0","53","1","7485","0"
"662","662","060417","16:40:58","318553201","910638292","4.0.10.0","1","3","demographics","gender","0","0","0","0","0","0","male","1","13672","0"
"663","663","060417","11:40:51","631889267","288187258","4.0.10.0","1","2","demographics","age","0","0","0","0","0","0","23","1","1789","0"
"664","664","060417","11:40:51","631889267","288187258","4.0.10.0","1","3","demographics","gender","0","0","0","0","0","0","male","1","2316","0"
"665","665","060417","10:41:12","604500266","439114050","4.0.10.0","1","2","demographics","age","0","0","0","0","0","0","27","1","2998","0"
"666","666","060417","10:41:12","604500266","439114050","4.0.10.0","1","3","demographics","gender","0","0","0","0","0","0","male ","1","5273","0"
"667","667","060417","16:41:05","318366566","955696180","4.0.10.0","1","2","demographics","age","0","0","0","0","0","0","59","1","4206","0"
"668","668","060417","16:41:05","318366566","955696180","4.0.10.0","1","3","demographics","gender","0","0","0","0","0","0","Male","1","5483","0"
"669","669","060417","16:40:32","324698491","194269562","4.0.10.0","1","2","demographics","age","0","0","0","0","0","0","38","1","3859","0"
"670","670","060417","16:40:32","324698491","194269562","4.0.10.0","1","3","demographics","gender","0","0","0","0","0","0","Male","1","4213","0"
"671","671","060417","11:40:38","913377563","617264163","4.0.10.0","1","2","demographics","age","0","0","0","0","0","0","25","1","2189","0"
"672","672","060417","11:40:38","913377563","617264163","4.0.10.0","1","3","demographics","gender","0","0","0","0","0","0","male","1","3383","0"
"673","673","060417","16:41:00","689884153","144273433","4.0.10.0","1","2","demographics","age","0","0","0","0","0","0","18","1","2265","0"
"674","674","060417","16:41:00","689884153","144273433","4.0.10.0","1","3","demographics","gender","0","0","0","0","0","0","Male","1","2849","0"
"675","675","060417","16:39:27","846851619","775412844","4.0.10.0","1","2","demographics","age","0","0","0","0","0","0","61","1","5349","0"
"676","676","060417","16:39:27","846851619","775412844","4.0.10.0","1","3","demographics","gender","0","0","0","0","0","0","female","1","6884","0"
"677","677","060417","11:40:22","636739174","488211867","4.0.10.0","1","2","demographics","age","0","0","0","0","0","0","24","1","3632","0"
"678","678","060417","11:40:22","636739174","488211867","4.0.10.0","1","3","demographics","gender","0","0","0","0","0","0","F","1","3206","0"
"679","679","060417","16:40:23","42953077","433095860","4.0.10.0","1","2","demographics","age","0","0","0","0","0","0","52","1","4569","0"
"680","680","060417","16:40:23","42953077","433095860","4.0.10.0","1","3","demographics","gender","0","0","0","0","0","0","Male","1","5939","0"
"681","681","060417","16:40:33","329431265","189536788","4.0.10.0","1","2","demographics","age","0","0","0","0","0","0","36","1","1950","0"
"682","682","060417","16:40:33","329431265","189536788","4.0.10.0","1","3","demographics","gender","0","0","0","0","0","0","female","1","2283","0"
"683","683","060417","11:39:22","494687164","898096622","4.0.10.0","1","2","demographics","age","0","0","0","0","0","0","23","1","5863","0"
"684","684","060417","11:39:22","494687164","898096622","4.0.10.0","1","3","demographics","gender","0","0","0","0","0","0","male","1","2500","0"
"685","685","060417","16:42:10","593585213","672926275","4.0.10.0","1","2","demographics","age","0","0","0","0","0","0","46","1","2651","0"
"686","686","060417","16:42:10","593585213","672926275","4.0.10.0","1","3","demographics","gender","0","0","0","0","0","0","female","1","6521","0"
"687","687","060417","16:39:55","644956314","621555173","4.0.10.0","1","2","demographics","age","0","0","0","0","0","0","54","1","4654","0"
"688","688","060417","16:39:55","644956314","621555173","4.0.10.0","1","3","demographics","gender","0","0","0","0","0","0","female","1","5707","0"
"689","689","060417","16:37:16","689884153","144273433","4.0.10.0","1","2","demographics","age","0","0","0","0","0","0","18","1","4365","0"
"690","690","060417","16:37:16","689884153","144273433","4.0.10.0","1","3","demographics","gender","0","0","0","0","0","0","Male","1","2699","0"
"691","691","060517","01:39:58","945117018","393953674","4.0.10.0","1","2","demographics","age","0","0","0","0","0","0","27","1","3594","0"
"692","692","060517","01:39:58","945117018","393953674","4.0.10.0","1","3","demographics","gender","0","0","0","0","0","0","Male","1","3378","0"
"693","693","060417","16:39:56","838839442","783425021","4.0.10.0","1","2","demographics","age","0","0","0","0","0","0","31","1","7517","0"
"694","694","060417","16:39:56","838839442","783425021","4.0.10.0","1","3","demographics","gender","0","0","0","0","0","0","female","1","9318","0"
"695","695","060417","16:39:43","112580577","587946902","4.0.10.0","1","2","demographics","age","0","0","0","0","0","0","32","1","1832","0"
"696","696","060417","16:39:43","112580577","587946902","4.0.10.0","1","3","demographics","gender","0","0","0","0","0","0","Male","1","4446","0"
"697","697","060417","09:39:14","246391373","241250543","4.0.10.0","1","2","demographics","age","0","0","0","0","0","0","24","1","1316","0"
"698","698","060417","09:39:14","246391373","241250543","4.0.10.0","1","3","demographics","gender","0","0","0","0","0","0","Male","1","5338","0"
"699","699","060417","10:39:16","930862795","408207897","4.0.10.0","1","2","demographics","age","0","0","0","0","0","0","22","1","5072","0"
"700","700","060417","10:39:16","930862795","408207897","4.0.10.0","1","3","demographics","gender","0","0","0","0","0","0","male","1","8893","0"
