"date","time","group","subject","build","blocknum","trialnum","blockcode","trialcode","pretrialpause","posttrialpause","windowcenter","trialduration","trialtimeout","blocktimeout","response","correct","latency","inwindow","stimulusnumber1","stimulusitem1","stimulusvpos1","stimulushpos1","stimulusonset1","stimulusnumber2","stimulusitem2","stimulusvpos2","stimulushpos2","stimulusonset2","stimulusnumber3","stimulusitem3","stimulusvpos3","stimulushpos3","stimulusonset3","stimulusnumber4","stimulusitem4","stimulusvpos4","stimulushpos4","stimulusonset4","stimulusnumber5","stimulusitem5","stimulusvpos5","stimulushpos5","stimulusonset5","stimulusnumber6","stimulusitem6","stimulusvpos6","stimulushpos6","stimulusonset6","stimulusnumber7","stimulusitem7","stimulusvpos7","stimulushpos7","stimulusonset7","stimulusnumber8","stimulusitem8","stimulusvpos8","stimulushpos8","stimulusonset8","stimulusnumber9","stimulusitem9","stimulusvpos9","stimulushpos9","stimulusonset9"
"060417","16:28:42","945186093","455843278","4.0.10.0","1","1","RMTS_test_2","A_negative_antonyms_left","750","0","0","0","0","0","18","1","5432","0","1","middle_rectangle","50pct","50pct","0","5","pic5.jpg","50","40","0","2","insect2.jpg","50","58","0","1","left_rectangle","15pct","15pct","0","1","right_rectangle","15pct","85pct","0","4","full         empty","15","15","0","4","full         full","15","85","0","1","Press E","4","15","0","1","Press I","4","85","0"
"060417","16:28:42","945186093","455843278","4.0.10.0","1","2","RMTS_test_2","A_positive_synonyms_right","750","0","0","0","0","0","18","0","13784","0","1","middle_rectangle","50pct","50pct","0","3","pic3.jpg","50","40","0","2","flower2.jpg","50","58","0","1","left_rectangle","15pct","15pct","0","1","right_rectangle","15pct","85pct","0","3","empty        full","15","15","0","3","empty        empty","15","85","0","1","Press E","4","15","0","1","Press I","4","85","0"
"060417","16:28:42","945186093","455843278","4.0.10.0","1","3","RMTS_test_2","A_negative_antonyms_left","750","0","0","0","0","0","18","1","6872","0","1","middle_rectangle","50pct","50pct","0","1","pic1.jpg","50","40","0","6","insect6.jpg","50","58","0","1","left_rectangle","15pct","15pct","0","1","right_rectangle","15pct","85pct","0","6","slow         fast","15","15","0","6","slow         slow","15","85","0","1","Press E","4","15","0","1","Press I","4","85","0"
"060417","16:28:42","945186093","455843278","4.0.10.0","1","4","RMTS_test_2","A_positive_synonyms_right","750","0","0","0","0","0","18","0","9592","0","1","middle_rectangle","50pct","50pct","0","6","pic5.jpg","50","40","0","1","flower1.jpg","50","58","0","1","left_rectangle","15pct","15pct","0","1","right_rectangle","15pct","85pct","0","2","bottom       top","15","15","0","2","bottom       bottom","15","85","0","1","Press E","4","15","0","1","Press I","4","85","0"
"060417","16:28:42","945186093","455843278","4.0.10.0","1","5","RMTS_test_2","A_negative_antonyms_left","750","0","0","0","0","0","18","1","3545","0","1","middle_rectangle","50pct","50pct","0","2","pic2.jpg","50","40","0","3","insect3.jpg","50","58","0","1","left_rectangle","15pct","15pct","0","1","right_rectangle","15pct","85pct","0","5","fast         slow","15","15","0","5","fast         fast","15","85","0","1","Press E","4","15","0","1","Press I","4","85","0"
"060417","16:28:42","945186093","455843278","4.0.10.0","1","6","RMTS_test_2","A_positive_synonyms_right","750","0","0","0","0","0","23","1","5088","0","1","middle_rectangle","50pct","50pct","0","4","pic4.jpg","50","40","0","6","flower6.jpg","50","58","0","1","left_rectangle","15pct","15pct","0","1","right_rectangle","15pct","85pct","0","1","top          bottom","15","15","0","1","top          top","15","85","0","1","Press E","4","15","0","1","Press I","4","85","0"
"060417","16:28:42","945186093","455843278","4.0.10.0","1","7","RMTS_test_2","A_negative_antonyms_left","750","0","0","0","0","0","18","1","3924","0","1","middle_rectangle","50pct","50pct","0","6","pic5.jpg","50","40","0","5","insect5.jpg","50","58","0","1","left_rectangle","15pct","15pct","0","1","right_rectangle","15pct","85pct","0","3","empty        full","15","15","0","3","empty        empty","15","85","0","1","Press E","4","15","0","1","Press I","4","85","0"
"060417","16:28:42","945186093","455843278","4.0.10.0","1","8","RMTS_test_2","A_positive_synonyms_right","750","0","0","0","0","0","23","1","2880","0","1","middle_rectangle","50pct","50pct","0","3","pic3.jpg","50","40","0","3","flower3.jpg","50","58","0","1","left_rectangle","15pct","15pct","0","1","right_rectangle","15pct","85pct","0","6","slow         fast","15","15","0","6","slow         slow","15","85","0","1","Press E","4","15","0","1","Press I","4","85","0"
"060417","16:28:42","945186093","455843278","4.0.10.0","1","9","RMTS_test_2","A_negative_antonyms_left","750","0","0","0","0","0","18","1","2588","0","1","middle_rectangle","50pct","50pct","0","1","pic1.jpg","50","40","0","4","insect4.jpg","50","58","0","1","left_rectangle","15pct","15pct","0","1","right_rectangle","15pct","85pct","0","5","fast         slow","15","15","0","5","fast         fast","15","85","0","1","Press E","4","15","0","1","Press I","4","85","0"
"060417","16:28:42","945186093","455843278","4.0.10.0","1","10","RMTS_test_2","A_positive_synonyms_right","750","0","0","0","0","0","23","1","3251","0","1","middle_rectangle","50pct","50pct","1","2","pic2.jpg","50","40","1","4","flower4.jpg","50","58","1","1","left_rectangle","15pct","15pct","1","1","right_rectangle","15pct","85pct","1","1","top          bottom","15","15","1","1","top          top","15","85","1","1","Press E","4","15","1","1","Press I","4","85","1"
"060417","16:28:42","945186093","455843278","4.0.10.0","1","11","RMTS_test_2","A_negative_antonyms_left","750","0","0","0","0","0","18","1","3160","0","1","middle_rectangle","50pct","50pct","0","5","pic5.jpg","50","40","0","1","insect1.jpg","50","58","0","1","left_rectangle","15pct","15pct","0","1","right_rectangle","15pct","85pct","0","2","bottom       top","15","15","0","2","bottom       bottom","15","85","0","1","Press E","4","15","0","1","Press I","4","85","0"
"060417","16:28:42","945186093","455843278","4.0.10.0","1","12","RMTS_test_2","A_positive_synonyms_right","750","0","0","0","0","0","23","1","5524","0","1","middle_rectangle","50pct","50pct","0","4","pic4.jpg","50","40","0","5","flower5.jpg","50","58","0","1","left_rectangle","15pct","15pct","0","1","right_rectangle","15pct","85pct","0","4","full         empty","15","15","0","4","full         full","15","85","0","1","Press E","4","15","0","1","Press I","4","85","0"
"060417","16:28:42","945186093","455843278","4.0.10.0","1","13","RMTS_test_2","A_negative_antonyms_left","750","0","0","0","0","0","18","1","4584","0","1","middle_rectangle","50pct","50pct","0","1","pic1.jpg","50","40","0","6","insect6.jpg","50","58","0","1","left_rectangle","15pct","15pct","0","1","right_rectangle","15pct","85pct","0","3","empty        full","15","15","0","3","empty        empty","15","85","0","1","Press E","4","15","0","1","Press I","4","85","0"
"060417","16:28:42","945186093","455843278","4.0.10.0","1","14","RMTS_test_2","A_positive_synonyms_right","750","0","0","0","0","0","23","1","2752","0","1","middle_rectangle","50pct","50pct","0","3","pic3.jpg","50","40","0","1","flower1.jpg","50","58","0","1","left_rectangle","15pct","15pct","0","1","right_rectangle","15pct","85pct","0","4","full         empty","15","15","0","4","full         full","15","85","0","1","Press E","4","15","0","1","Press I","4","85","0"
"060417","16:28:42","945186093","455843278","4.0.10.0","1","15","RMTS_test_2","A_negative_antonyms_left","750","0","0","0","0","0","23","0","2712","0","1","middle_rectangle","50pct","50pct","0","2","pic2.jpg","50","40","0","3","insect3.jpg","50","58","0","1","left_rectangle","15pct","15pct","0","1","right_rectangle","15pct","85pct","0","2","bottom       top","15","15","0","2","bottom       bottom","15","85","0","1","Press E","4","15","0","1","Press I","4","85","0"
"060417","16:28:42","945186093","455843278","4.0.10.0","1","16","RMTS_test_2","A_positive_synonyms_right","750","0","0","0","0","0","23","1","3184","0","1","middle_rectangle","50pct","50pct","0","6","pic5.jpg","50","40","0","4","flower4.jpg","50","58","0","1","left_rectangle","15pct","15pct","0","1","right_rectangle","15pct","85pct","0","5","fast         slow","15","15","0","5","fast         fast","15","85","0","1","Press E","4","15","0","1","Press I","4","85","0"
"060417","16:23:13","912251804","453917922","4.0.10.0","1","1","RMTS_test_1","A_positive_antonyms_left","750","0","0","0","0","0","23","0","9005","0","1","middle_rectangle","50pct","50pct","1","6","pic5.jpg","50","40","1","6","flower6.jpg","50","58","1","1","left_rectangle","15pct","15pct","1","1","right_rectangle","15pct","85pct","1","2","bottom       top","15","15","1","2","bottom       bottom","15","85","1","1","Press E","4","15","1","1","Press I","4","85","1"
"060417","16:23:13","912251804","453917922","4.0.10.0","1","2","RMTS_test_1","A_negative_synonyms_right","750","0","0","0","0","0","18","0","3603","0","1","middle_rectangle","50pct","50pct","0","4","pic4.jpg","50","40","0","2","insect2.jpg","50","58","0","1","left_rectangle","15pct","15pct","0","1","right_rectangle","15pct","85pct","0","6","slow         fast","15","15","0","6","slow         slow","15","85","0","1","Press E","4","15","0","1","Press I","4","85","0"
"060417","16:23:13","912251804","453917922","4.0.10.0","1","3","RMTS_test_1","A_positive_antonyms_left","750","0","0","0","0","0","23","0","1487","0","1","middle_rectangle","50pct","50pct","0","3","pic3.jpg","50","40","0","5","flower5.jpg","50","58","0","1","left_rectangle","15pct","15pct","0","1","right_rectangle","15pct","85pct","0","4","full         empty","15","15","0","4","full         full","15","85","0","1","Press E","4","15","0","1","Press I","4","85","0"
"060417","16:23:13","912251804","453917922","4.0.10.0","1","4","RMTS_test_1","A_negative_synonyms_right","750","0","0","0","0","0","18","0","955","0","1","middle_rectangle","50pct","50pct","0","5","pic5.jpg","50","40","0","4","insect4.jpg","50","58","0","1","left_rectangle","15pct","15pct","0","1","right_rectangle","15pct","85pct","0","1","top          bottom","15","15","0","1","top          top","15","85","0","1","Press E","4","15","0","1","Press I","4","85","0"
"060417","16:23:13","912251804","453917922","4.0.10.0","1","5","RMTS_test_1","A_positive_antonyms_left","750","0","0","0","0","0","23","0","1282","0","1","middle_rectangle","50pct","50pct","0","2","pic2.jpg","50","40","0","4","flower4.jpg","50","58","0","1","left_rectangle","15pct","15pct","0","1","right_rectangle","15pct","85pct","0","5","fast         slow","15","15","0","5","fast         fast","15","85","0","1","Press E","4","15","0","1","Press I","4","85","0"
"060417","16:23:13","912251804","453917922","4.0.10.0","1","6","RMTS_test_1","A_negative_synonyms_right","750","0","0","0","0","0","18","0","3366","0","1","middle_rectangle","50pct","50pct","0","1","pic1.jpg","50","40","0","5","insect5.jpg","50","58","0","1","left_rectangle","15pct","15pct","0","1","right_rectangle","15pct","85pct","0","3","empty        full","15","15","0","3","empty        empty","15","85","0","1","Press E","4","15","0","1","Press I","4","85","0"
"060417","16:23:13","912251804","453917922","4.0.10.0","1","7","RMTS_test_1","A_positive_antonyms_left","750","0","0","0","0","0","23","0","2240","0","1","middle_rectangle","50pct","50pct","0","6","pic5.jpg","50","40","0","1","flower1.jpg","50","58","0","1","left_rectangle","15pct","15pct","0","1","right_rectangle","15pct","85pct","0","4","full         empty","15","15","0","4","full         full","15","85","0","1","Press E","4","15","0","1","Press I","4","85","0"
"060417","16:23:13","912251804","453917922","4.0.10.0","1","8","RMTS_test_1","A_negative_synonyms_right","750","0","0","0","0","0","18","0","1268","0","1","middle_rectangle","50pct","50pct","0","1","pic1.jpg","50","40","0","1","insect1.jpg","50","58","0","1","left_rectangle","15pct","15pct","0","1","right_rectangle","15pct","85pct","0","6","slow         fast","15","15","0","6","slow         slow","15","85","0","1","Press E","4","15","0","1","Press I","4","85","0"
"060417","16:23:13","912251804","453917922","4.0.10.0","1","9","RMTS_test_1","A_positive_antonyms_left","750","0","0","0","0","0","23","0","821","0","1","middle_rectangle","50pct","50pct","0","5","pic5.jpg","50","40","0","2","flower2.jpg","50","58","0","1","left_rectangle","15pct","15pct","0","1","right_rectangle","15pct","85pct","0","2","bottom       top","15","15","0","2","bottom       bottom","15","85","0","1","Press E","4","15","0","1","Press I","4","85","0"
"060417","16:23:13","912251804","453917922","4.0.10.0","1","10","RMTS_test_1","A_negative_synonyms_right","750","0","0","0","0","0","18","0","845","0","1","middle_rectangle","50pct","50pct","0","2","pic2.jpg","50","40","0","3","insect3.jpg","50","58","0","1","left_rectangle","15pct","15pct","0","1","right_rectangle","15pct","85pct","0","5","fast         slow","15","15","0","5","fast         fast","15","85","0","1","Press E","4","15","0","1","Press I","4","85","0"
"060417","16:23:13","912251804","453917922","4.0.10.0","1","11","RMTS_test_1","A_positive_antonyms_left","750","0","0","0","0","0","23","0","695","0","1","middle_rectangle","50pct","50pct","0","3","pic3.jpg","50","40","0","3","flower3.jpg","50","58","0","1","left_rectangle","15pct","15pct","0","1","right_rectangle","15pct","85pct","0","3","empty        full","15","15","0","3","empty        empty","15","85","0","1","Press E","4","15","0","1","Press I","4","85","0"
"060417","16:23:13","912251804","453917922","4.0.10.0","1","12","RMTS_test_1","A_negative_synonyms_right","750","0","0","0","0","0","18","0","4896","0","1","middle_rectangle","50pct","50pct","0","4","pic4.jpg","50","40","0","6","insect6.jpg","50","58","0","1","left_rectangle","15pct","15pct","0","1","right_rectangle","15pct","85pct","0","1","top          bottom","15","15","0","1","top          top","15","85","0","1","Press E","4","15","0","1","Press I","4","85","0"
"060417","16:23:13","912251804","453917922","4.0.10.0","1","13","RMTS_test_1","A_positive_antonyms_left","750","0","0","0","0","0","23","0","3182","0","1","middle_rectangle","50pct","50pct","0","5","pic5.jpg","50","40","0","4","flower4.jpg","50","58","0","1","left_rectangle","15pct","15pct","0","1","right_rectangle","15pct","85pct","0","2","bottom       top","15","15","0","2","bottom       bottom","15","85","0","1","Press E","4","15","0","1","Press I","4","85","0"
"060417","16:23:13","912251804","453917922","4.0.10.0","1","14","RMTS_test_1","A_negative_synonyms_right","750","0","0","0","0","0","18","0","1495","0","1","middle_rectangle","50pct","50pct","0","1","pic1.jpg","50","40","0","3","insect3.jpg","50","58","0","1","left_rectangle","15pct","15pct","0","1","right_rectangle","15pct","85pct","0","4","full         empty","15","15","0","4","full         full","15","85","0","1","Press E","4","15","0","1","Press I","4","85","0"
"060417","16:23:13","912251804","453917922","4.0.10.0","1","15","RMTS_test_1","A_positive_antonyms_left","750","0","0","0","0","0","23","0","802","0","1","middle_rectangle","50pct","50pct","0","2","pic2.jpg","50","40","0","2","flower2.jpg","50","58","0","1","left_rectangle","15pct","15pct","0","1","right_rectangle","15pct","85pct","0","5","fast         slow","15","15","0","5","fast         fast","15","85","0","1","Press E","4","15","0","1","Press I","4","85","0"
"060417","16:23:13","912251804","453917922","4.0.10.0","1","16","RMTS_test_1","A_negative_synonyms_right","750","0","0","0","0","0","18","0","1378","0","1","middle_rectangle","50pct","50pct","0","6","pic5.jpg","50","40","0","5","insect5.jpg","50","58","0","1","left_rectangle","15pct","15pct","0","1","right_rectangle","15pct","85pct","0","6","slow         fast","15","15","0","6","slow         slow","15","85","0","1","Press E","4","15","0","1","Press I","4","85","0"
"060417","21:18:09","462563064","576824149","4.0.10.0","1","1","RMTS_test_2","A_negative_antonyms_left","750","0","0","0","0","0","18","1","6368","0","1","middle_rectangle","50pct","50pct","7","4","pic4.jpg","50","40","7","6","insect6.jpg","50","58","7","1","left_rectangle","15pct","15pct","7","1","right_rectangle","15pct","85pct","7","6","slow         fast","15","15","7","6","slow         slow","15","85","7","1","Press E","4","15","7","1","Press I","4","85","7"
"060417","21:18:09","462563064","576824149","4.0.10.0","1","2","RMTS_test_2","A_positive_synonyms_right","750","0","0","0","0","0","18","0","3538","0","1","middle_rectangle","50pct","50pct","8","3","pic3.jpg","50","40","8","3","flower3.jpg","50","58","8","1","left_rectangle","15pct","15pct","8","1","right_rectangle","15pct","85pct","8","1","top          bottom","15","15","8","1","top          top","15","85","8","1","Press E","4","15","8","1","Press I","4","85","8"
"060417","21:18:09","462563064","576824149","4.0.10.0","1","3","RMTS_test_2","A_negative_antonyms_left","750","0","0","0","0","0","18","1","3292","0","1","middle_rectangle","50pct","50pct","4","2","pic2.jpg","50","40","4","3","insect3.jpg","50","58","4","1","left_rectangle","15pct","15pct","4","1","right_rectangle","15pct","85pct","4","3","empty        full","15","15","4","3","empty        empty","15","85","4","1","Press E","4","15","4","1","Press I","4","85","4"
"060417","21:18:09","462563064","576824149","4.0.10.0","1","4","RMTS_test_2","A_positive_synonyms_right","750","0","0","0","0","0","18","0","2876","0","1","middle_rectangle","50pct","50pct","2","1","pic1.jpg","50","40","2","4","flower4.jpg","50","58","2","1","left_rectangle","15pct","15pct","2","1","right_rectangle","15pct","85pct","2","5","fast         slow","15","15","2","5","fast         fast","15","85","2","1","Press E","4","15","2","1","Press I","4","85","2"
"060417","21:18:09","462563064","576824149","4.0.10.0","1","5","RMTS_test_2","A_negative_antonyms_left","750","0","0","0","0","0","23","0","1713","0","1","middle_rectangle","50pct","50pct","3","6","pic5.jpg","50","40","3","1","insect1.jpg","50","58","3","1","left_rectangle","15pct","15pct","3","1","right_rectangle","15pct","85pct","3","4","full         empty","15","15","3","4","full         full","15","85","3","1","Press E","4","15","3","1","Press I","4","85","3"
"060417","21:18:09","462563064","576824149","4.0.10.0","1","6","RMTS_test_2","A_positive_synonyms_right","750","0","0","0","0","0","18","0","1182","0","1","middle_rectangle","50pct","50pct","4","5","pic5.jpg","50","40","4","6","flower6.jpg","50","58","4","1","left_rectangle","15pct","15pct","4","1","right_rectangle","15pct","85pct","4","2","bottom       top","15","15","4","2","bottom       bottom","15","85","4","1","Press E","4","15","4","1","Press I","4","85","4"
"060417","21:18:09","462563064","576824149","4.0.10.0","1","7","RMTS_test_2","A_negative_antonyms_left","750","0","0","0","0","0","23","0","1603","0","1","middle_rectangle","50pct","50pct","3","2","pic2.jpg","50","40","3","4","insect4.jpg","50","58","3","1","left_rectangle","15pct","15pct","3","1","right_rectangle","15pct","85pct","3","1","top          bottom","15","15","3","1","top          top","15","85","3","1","Press E","4","15","3","1","Press I","4","85","3"
"060417","21:18:09","462563064","576824149","4.0.10.0","1","8","RMTS_test_2","A_positive_synonyms_right","750","0","0","0","0","0","18","0","1978","0","1","middle_rectangle","50pct","50pct","4","5","pic5.jpg","50","40","4","2","flower2.jpg","50","58","4","1","left_rectangle","15pct","15pct","4","1","right_rectangle","15pct","85pct","4","2","bottom       top","15","15","4","2","bottom       bottom","15","85","4","1","Press E","4","15","4","1","Press I","4","85","4"
"060417","21:18:09","462563064","576824149","4.0.10.0","1","9","RMTS_test_2","A_negative_antonyms_left","750","0","0","0","0","0","18","1","1007","0","1","middle_rectangle","50pct","50pct","4","1","pic1.jpg","50","40","4","2","insect2.jpg","50","58","4","1","left_rectangle","15pct","15pct","4","1","right_rectangle","15pct","85pct","4","3","empty        full","15","15","4","3","empty        empty","15","85","4","1","Press E","4","15","4","1","Press I","4","85","4"
"060417","21:18:09","462563064","576824149","4.0.10.0","1","10","RMTS_test_2","A_positive_synonyms_right","750","0","0","0","0","0","23","1","747","0","1","middle_rectangle","50pct","50pct","3","6","pic5.jpg","50","40","3","1","flower1.jpg","50","58","3","1","left_rectangle","15pct","15pct","3","1","right_rectangle","15pct","85pct","3","5","fast         slow","15","15","3","5","fast         fast","15","85","3","1","Press E","4","15","3","1","Press I","4","85","3"
"060417","21:18:09","462563064","576824149","4.0.10.0","1","11","RMTS_test_2","A_negative_antonyms_left","750","0","0","0","0","0","23","0","722","0","1","middle_rectangle","50pct","50pct","3","3","pic3.jpg","50","40","3","5","insect5.jpg","50","58","3","1","left_rectangle","15pct","15pct","3","1","right_rectangle","15pct","85pct","3","4","full         empty","15","15","3","4","full         full","15","85","3","1","Press E","4","15","3","1","Press I","4","85","3"
"060417","21:18:09","462563064","576824149","4.0.10.0","1","12","RMTS_test_2","A_positive_synonyms_right","750","0","0","0","0","0","23","1","1514","0","1","middle_rectangle","50pct","50pct","4","4","pic4.jpg","50","40","4","5","flower5.jpg","50","58","4","1","left_rectangle","15pct","15pct","4","1","right_rectangle","15pct","85pct","4","6","slow         fast","15","15","4","6","slow         slow","15","85","4","1","Press E","4","15","4","1","Press I","4","85","4"
"060417","21:18:09","462563064","576824149","4.0.10.0","1","13","RMTS_test_2","A_negative_antonyms_left","750","0","0","0","0","0","23","0","785","0","1","middle_rectangle","50pct","50pct","4","2","pic2.jpg","50","40","4","3","insect3.jpg","50","58","4","1","left_rectangle","15pct","15pct","4","1","right_rectangle","15pct","85pct","4","4","full         empty","15","15","4","4","full         full","15","85","4","1","Press E","4","15","4","1","Press I","4","85","4"
"060417","21:18:09","462563064","576824149","4.0.10.0","1","14","RMTS_test_2","A_positive_synonyms_right","750","0","0","0","0","0","18","0","452","0","1","middle_rectangle","50pct","50pct","4","5","pic5.jpg","50","40","4","4","flower4.jpg","50","58","4","1","left_rectangle","15pct","15pct","4","1","right_rectangle","15pct","85pct","4","3","empty        full","15","15","4","3","empty        empty","15","85","4","1","Press E","4","15","4","1","Press I","4","85","4"
"060417","21:18:09","462563064","576824149","4.0.10.0","1","15","RMTS_test_2","A_negative_antonyms_left","750","0","0","0","0","0","23","0","696","0","1","middle_rectangle","50pct","50pct","3","3","pic3.jpg","50","40","3","6","insect6.jpg","50","58","3","1","left_rectangle","15pct","15pct","3","1","right_rectangle","15pct","85pct","3","2","bottom       top","15","15","3","2","bottom       bottom","15","85","3","1","Press E","4","15","3","1","Press I","4","85","3"
"060417","21:18:09","462563064","576824149","4.0.10.0","1","16","RMTS_test_2","A_positive_synonyms_right","750","0","0","0","0","0","23","1","590","0","1","middle_rectangle","50pct","50pct","3","4","pic4.jpg","50","40","3","1","flower1.jpg","50","58","3","1","left_rectangle","15pct","15pct","3","1","right_rectangle","15pct","85pct","3","5","fast         slow","15","15","3","5","fast         fast","15","85","3","1","Press E","4","15","3","1","Press I","4","85","3"
"060517","04:11:33","735441873","441229036","4.0.10.0","1","1","RMTS_test_1","A_positive_antonyms_left","750","0","0","0","0","0","23","0","9439","0","1","middle_rectangle","50pct","50pct","2","1","pic1.jpg","50","40","2","2","flower2.jpg","50","58","2","1","left_rectangle","15pct","15pct","2","1","right_rectangle","15pct","85pct","2","1","top          bottom","15","15","2","1","top          top","15","85","2","1","Press E","4","15","2","1","Press I","4","85","2"
"060517","04:11:33","735441873","441229036","4.0.10.0","1","2","RMTS_test_1","A_negative_synonyms_right","750","0","0","0","0","0","23","1","10520","0","1","middle_rectangle","50pct","50pct","2","2","pic2.jpg","50","40","2","2","insect2.jpg","50","58","2","1","left_rectangle","15pct","15pct","2","1","right_rectangle","15pct","85pct","2","3","empty        full","15","15","2","3","empty        empty","15","85","2","1","Press E","4","15","2","1","Press I","4","85","2"
"060517","04:11:33","735441873","441229036","4.0.10.0","1","3","RMTS_test_1","A_positive_antonyms_left","750","0","0","0","0","0","23","0","2984","0","1","middle_rectangle","50pct","50pct","1","4","pic4.jpg","50","40","1","3","flower3.jpg","50","58","1","1","left_rectangle","15pct","15pct","1","1","right_rectangle","15pct","85pct","1","5","fast         slow","15","15","1","5","fast         fast","15","85","1","1","Press E","4","15","1","1","Press I","4","85","1"
"060517","04:11:33","735441873","441229036","4.0.10.0","1","4","RMTS_test_1","A_negative_synonyms_right","750","0","0","0","0","0","23","1","4178","0","1","middle_rectangle","50pct","50pct","1","6","pic5.jpg","50","40","1","1","insect1.jpg","50","58","1","1","left_rectangle","15pct","15pct","1","1","right_rectangle","15pct","85pct","1","2","bottom       top","15","15","1","2","bottom       bottom","15","85","1","1","Press E","4","15","1","1","Press I","4","85","1"
"060517","04:11:33","735441873","441229036","4.0.10.0","1","5","RMTS_test_1","A_positive_antonyms_left","750","0","0","0","0","0","23","0","2180","0","1","middle_rectangle","50pct","50pct","1","3","pic3.jpg","50","40","1","6","flower6.jpg","50","58","1","1","left_rectangle","15pct","15pct","1","1","right_rectangle","15pct","85pct","1","6","slow         fast","15","15","1","6","slow         slow","15","85","1","1","Press E","4","15","1","1","Press I","4","85","1"
"060517","04:11:33","735441873","441229036","4.0.10.0","1","6","RMTS_test_1","A_negative_synonyms_right","750","0","0","0","0","0","23","1","6581","0","1","middle_rectangle","50pct","50pct","1","5","pic5.jpg","50","40","1","3","insect3.jpg","50","58","1","1","left_rectangle","15pct","15pct","1","1","right_rectangle","15pct","85pct","1","4","full         empty","15","15","1","4","full         full","15","85","1","1","Press E","4","15","1","1","Press I","4","85","1"
"060517","04:11:33","735441873","441229036","4.0.10.0","1","7","RMTS_test_1","A_positive_antonyms_left","750","0","0","0","0","0","23","0","860","0","1","middle_rectangle","50pct","50pct","1","4","pic4.jpg","50","40","1","1","flower1.jpg","50","58","1","1","left_rectangle","15pct","15pct","1","1","right_rectangle","15pct","85pct","1","3","empty        full","15","15","1","3","empty        empty","15","85","1","1","Press E","4","15","1","1","Press I","4","85","1"
"060517","04:11:33","735441873","441229036","4.0.10.0","1","8","RMTS_test_1","A_negative_synonyms_right","750","0","0","0","0","0","23","1","3723","0","1","middle_rectangle","50pct","50pct","1","6","pic5.jpg","50","40","1","4","insect4.jpg","50","58","1","1","left_rectangle","15pct","15pct","1","1","right_rectangle","15pct","85pct","1","6","slow         fast","15","15","1","6","slow         slow","15","85","1","1","Press E","4","15","1","1","Press I","4","85","1"
"060517","04:11:33","735441873","441229036","4.0.10.0","1","9","RMTS_test_1","A_positive_antonyms_left","750","0","0","0","0","0","23","0","876","0","1","middle_rectangle","50pct","50pct","1","3","pic3.jpg","50","40","1","5","flower5.jpg","50","58","1","1","left_rectangle","15pct","15pct","1","1","right_rectangle","15pct","85pct","1","4","full         empty","15","15","1","4","full         full","15","85","1","1","Press E","4","15","1","1","Press I","4","85","1"
"060517","04:11:33","735441873","441229036","4.0.10.0","1","10","RMTS_test_1","A_negative_synonyms_right","750","0","0","0","0","0","18","0","3696","0","1","middle_rectangle","50pct","50pct","1","2","pic2.jpg","50","40","1","6","insect6.jpg","50","58","1","1","left_rectangle","15pct","15pct","1","1","right_rectangle","15pct","85pct","1","5","fast         slow","15","15","1","5","fast         fast","15","85","1","1","Press E","4","15","1","1","Press I","4","85","1"
"060517","04:11:33","735441873","441229036","4.0.10.0","1","11","RMTS_test_1","A_positive_antonyms_left","750","0","0","0","0","0","23","0","2208","0","1","middle_rectangle","50pct","50pct","1","5","pic5.jpg","50","40","1","4","flower4.jpg","50","58","1","1","left_rectangle","15pct","15pct","1","1","right_rectangle","15pct","85pct","1","1","top          bottom","15","15","1","1","top          top","15","85","1","1","Press E","4","15","1","1","Press I","4","85","1"
"060517","04:11:33","735441873","441229036","4.0.10.0","1","12","RMTS_test_1","A_negative_synonyms_right","750","0","0","0","0","0","23","1","1068","0","1","middle_rectangle","50pct","50pct","1","1","pic1.jpg","50","40","1","5","insect5.jpg","50","58","1","1","left_rectangle","15pct","15pct","1","1","right_rectangle","15pct","85pct","1","2","bottom       top","15","15","1","2","bottom       bottom","15","85","1","1","Press E","4","15","1","1","Press I","4","85","1"
"060517","04:11:33","735441873","441229036","4.0.10.0","1","13","RMTS_test_1","A_positive_antonyms_left","750","0","0","0","0","0","23","0","720","0","1","middle_rectangle","50pct","50pct","2","4","pic4.jpg","50","40","2","6","flower6.jpg","50","58","2","1","left_rectangle","15pct","15pct","2","1","right_rectangle","15pct","85pct","2","6","slow         fast","15","15","2","6","slow         slow","15","85","2","1","Press E","4","15","2","1","Press I","4","85","2"
"060517","04:11:33","735441873","441229036","4.0.10.0","1","14","RMTS_test_1","A_negative_synonyms_right","750","0","0","0","0","0","18","0","1658","0","1","middle_rectangle","50pct","50pct","2","5","pic5.jpg","50","40","2","6","insect6.jpg","50","58","2","1","left_rectangle","15pct","15pct","2","1","right_rectangle","15pct","85pct","2","2","bottom       top","15","15","2","2","bottom       bottom","15","85","2","1","Press E","4","15","2","1","Press I","4","85","2"
"060517","04:11:33","735441873","441229036","4.0.10.0","1","15","RMTS_test_1","A_positive_antonyms_left","750","0","0","0","0","0","23","0","1608","0","1","middle_rectangle","50pct","50pct","1","1","pic1.jpg","50","40","1","1","flower1.jpg","50","58","1","1","left_rectangle","15pct","15pct","1","1","right_rectangle","15pct","85pct","1","3","empty        full","15","15","1","3","empty        empty","15","85","1","1","Press E","4","15","1","1","Press I","4","85","1"
"060517","04:11:33","735441873","441229036","4.0.10.0","1","16","RMTS_test_1","A_negative_synonyms_right","750","0","0","0","0","0","23","1","1082","0","1","middle_rectangle","50pct","50pct","1","6","pic5.jpg","50","40","1","1","insect1.jpg","50","58","1","1","left_rectangle","15pct","15pct","1","1","right_rectangle","15pct","85pct","1","5","fast         slow","15","15","1","5","fast         fast","15","85","1","1","Press E","4","15","1","1","Press I","4","85","1"
"060417","13:11:22","160297430","162872485","4.0.10.0","1","1","RMTS_test_2","A_positive_synonyms_right","750","0","0","0","0","0","18","0","7928","0","1","middle_rectangle","50pct","50pct","2","3","pic3.jpg","50","40","2","1","flower1.jpg","50","58","2","1","left_rectangle","15pct","15pct","2","1","right_rectangle","15pct","85pct","2","2","bottom       top","15","15","2","2","bottom       bottom","15","85","2","1","Press E","4","15","2","1","Press I","4","85","2"
"060417","13:11:22","160297430","162872485","4.0.10.0","1","2","RMTS_test_2","A_negative_antonyms_left","750","0","0","0","0","0","23","0","3399","0","1","middle_rectangle","50pct","50pct","1","4","pic4.jpg","50","40","1","2","insect2.jpg","50","58","1","1","left_rectangle","15pct","15pct","1","1","right_rectangle","15pct","85pct","1","6","slow         fast","15","15","1","6","slow         slow","15","85","1","1","Press E","4","15","1","1","Press I","4","85","1"
"060417","13:11:22","160297430","162872485","4.0.10.0","1","3","RMTS_test_2","A_positive_synonyms_right","750","0","0","0","0","0","23","1","1470","0","1","middle_rectangle","50pct","50pct","1","1","pic1.jpg","50","40","1","2","flower2.jpg","50","58","1","1","left_rectangle","15pct","15pct","1","1","right_rectangle","15pct","85pct","1","1","top          bottom","15","15","1","1","top          top","15","85","1","1","Press E","4","15","1","1","Press I","4","85","1"
"060417","13:11:22","160297430","162872485","4.0.10.0","1","4","RMTS_test_2","A_negative_antonyms_left","750","0","0","0","0","0","23","0","856","0","1","middle_rectangle","50pct","50pct","1","2","pic2.jpg","50","40","1","4","insect4.jpg","50","58","1","1","left_rectangle","15pct","15pct","1","1","right_rectangle","15pct","85pct","1","3","empty        full","15","15","1","3","empty        empty","15","85","1","1","Press E","4","15","1","1","Press I","4","85","1"
"060417","13:11:22","160297430","162872485","4.0.10.0","1","5","RMTS_test_2","A_positive_synonyms_right","750","0","0","0","0","0","18","0","1106","0","1","middle_rectangle","50pct","50pct","1","5","pic5.jpg","50","40","1","4","flower4.jpg","50","58","1","1","left_rectangle","15pct","15pct","1","1","right_rectangle","15pct","85pct","1","5","fast         slow","15","15","1","5","fast         fast","15","85","1","1","Press E","4","15","1","1","Press I","4","85","1"
"060417","13:11:22","160297430","162872485","4.0.10.0","1","6","RMTS_test_2","A_negative_antonyms_left","750","0","0","0","0","0","18","1","267","0","1","middle_rectangle","50pct","50pct","1","6","pic5.jpg","50","40","1","6","insect6.jpg","50","58","1","1","left_rectangle","15pct","15pct","1","1","right_rectangle","15pct","85pct","1","4","full         empty","15","15","1","4","full         full","15","85","1","1","Press E","4","15","1","1","Press I","4","85","1"
"060417","13:11:22","160297430","162872485","4.0.10.0","1","7","RMTS_test_2","A_positive_synonyms_right","750","0","0","0","0","0","23","1","339","0","1","middle_rectangle","50pct","50pct","1","3","pic3.jpg","50","40","1","3","flower3.jpg","50","58","1","1","left_rectangle","15pct","15pct","1","1","right_rectangle","15pct","85pct","1","1","top          bottom","15","15","1","1","top          top","15","85","1","1","Press E","4","15","1","1","Press I","4","85","1"
"060417","13:11:22","160297430","162872485","4.0.10.0","1","8","RMTS_test_2","A_negative_antonyms_left","750","0","0","0","0","0","23","0","273","0","1","middle_rectangle","50pct","50pct","1","4","pic4.jpg","50","40","1","3","insect3.jpg","50","58","1","1","left_rectangle","15pct","15pct","1","1","right_rectangle","15pct","85pct","1","6","slow         fast","15","15","1","6","slow         slow","15","85","1","1","Press E","4","15","1","1","Press I","4","85","1"
"060417","13:11:22","160297430","162872485","4.0.10.0","1","9","RMTS_test_2","A_positive_synonyms_right","750","0","0","0","0","0","18","0","346","0","1","middle_rectangle","50pct","50pct","1","5","pic5.jpg","50","40","1","6","flower6.jpg","50","58","1","1","left_rectangle","15pct","15pct","1","1","right_rectangle","15pct","85pct","1","5","fast         slow","15","15","1","5","fast         fast","15","85","1","1","Press E","4","15","1","1","Press I","4","85","1"
"060417","13:11:22","160297430","162872485","4.0.10.0","1","10","RMTS_test_2","A_negative_antonyms_left","750","0","0","0","0","0","18","1","1952","0","1","middle_rectangle","50pct","50pct","1","2","pic2.jpg","50","40","1","5","insect5.jpg","50","58","1","1","left_rectangle","15pct","15pct","1","1","right_rectangle","15pct","85pct","1","3","empty        full","15","15","1","3","empty        empty","15","85","1","1","Press E","4","15","1","1","Press I","4","85","1"
"060417","13:11:22","160297430","162872485","4.0.10.0","1","11","RMTS_test_2","A_positive_synonyms_right","750","0","0","0","0","0","18","0","583","0","1","middle_rectangle","50pct","50pct","1","6","pic5.jpg","50","40","1","5","flower5.jpg","50","58","1","1","left_rectangle","15pct","15pct","1","1","right_rectangle","15pct","85pct","1","2","bottom       top","15","15","1","2","bottom       bottom","15","85","1","1","Press E","4","15","1","1","Press I","4","85","1"
"060417","13:11:22","160297430","162872485","4.0.10.0","1","12","RMTS_test_2","A_negative_antonyms_left","750","0","0","0","0","0","18","1","299","0","1","middle_rectangle","50pct","50pct","1","1","pic1.jpg","50","40","1","1","insect1.jpg","50","58","1","1","left_rectangle","15pct","15pct","1","1","right_rectangle","15pct","85pct","1","4","full         empty","15","15","1","4","full         full","15","85","1","1","Press E","4","15","1","1","Press I","4","85","1"
"060417","13:11:22","160297430","162872485","4.0.10.0","1","13","RMTS_test_2","A_positive_synonyms_right","750","0","0","0","0","0","18","0","362","0","1","middle_rectangle","50pct","50pct","1","6","pic5.jpg","50","40","1","4","flower4.jpg","50","58","1","1","left_rectangle","15pct","15pct","1","1","right_rectangle","15pct","85pct","1","6","slow         fast","15","15","1","6","slow         slow","15","85","1","1","Press E","4","15","1","1","Press I","4","85","1"
"060417","13:11:22","160297430","162872485","4.0.10.0","1","14","RMTS_test_2","A_negative_antonyms_left","750","0","0","0","0","0","23","0","232","0","1","middle_rectangle","50pct","50pct","1","4","pic4.jpg","50","40","1","3","insect3.jpg","50","58","1","1","left_rectangle","15pct","15pct","1","1","right_rectangle","15pct","85pct","1","5","fast         slow","15","15","1","5","fast         fast","15","85","1","1","Press E","4","15","1","1","Press I","4","85","1"
"060417","13:11:22","160297430","162872485","4.0.10.0","1","15","RMTS_test_2","A_positive_synonyms_right","750","0","0","0","0","0","18","0","2698","0","1","middle_rectangle","50pct","50pct","1","2","pic2.jpg","50","40","1","1","flower1.jpg","50","58","1","1","left_rectangle","15pct","15pct","1","1","right_rectangle","15pct","85pct","1","3","empty        full","15","15","1","3","empty        empty","15","85","1","1","Press E","4","15","1","1","Press I","4","85","1"
"060417","13:11:22","160297430","162872485","4.0.10.0","1","16","RMTS_test_2","A_negative_antonyms_left","750","0","0","0","0","0","18","1","1517","0","1","middle_rectangle","50pct","50pct","1","3","pic3.jpg","50","40","1","1","insect1.jpg","50","58","1","1","left_rectangle","15pct","15pct","1","1","right_rectangle","15pct","85pct","1","1","top          bottom","15","15","1","1","top          top","15","85","1","1","Press E","4","15","1","1","Press I","4","85","1"
"060417","21:05:35","629660402","347074539","4.0.10.0","1","1","RMTS_test_1","A_negative_synonyms_right","750","0","0","0","0","0","18","0","5725","0","1","middle_rectangle","50pct","50pct","-15","3","pic3.jpg","50","40","-15","1","insect1.jpg","50","58","-15","1","left_rectangle","15pct","15pct","-15","1","right_rectangle","15pct","85pct","-15","2","bottom       top","15","15","-15","2","bottom       bottom","15","85","-15","1","Press E","4","15","-15","1","Press I","4","85","-15"
"060417","21:05:35","629660402","347074539","4.0.10.0","1","2","RMTS_test_1","A_positive_antonyms_left","750","0","0","0","0","0","23","0","4659","0","1","middle_rectangle","50pct","50pct","-15","4","pic4.jpg","50","40","-15","1","flower1.jpg","50","58","-15","1","left_rectangle","15pct","15pct","-15","1","right_rectangle","15pct","85pct","-15","5","fast         slow","15","15","-15","5","fast         fast","15","85","-15","1","Press E","4","15","-15","1","Press I","4","85","-15"
"060417","21:05:35","629660402","347074539","4.0.10.0","1","3","RMTS_test_1","A_negative_synonyms_right","750","0","0","0","0","0","23","1","3356","0","1","middle_rectangle","50pct","50pct","-15","1","pic1.jpg","50","40","-15","6","insect6.jpg","50","58","-15","1","left_rectangle","15pct","15pct","-15","1","right_rectangle","15pct","85pct","-15","4","full         empty","15","15","-15","4","full         full","15","85","-15","1","Press E","4","15","-15","1","Press I","4","85","-15"
"060417","21:05:35","629660402","347074539","4.0.10.0","1","4","RMTS_test_1","A_positive_antonyms_left","750","0","0","0","0","0","18","1","2650","0","1","middle_rectangle","50pct","50pct","-15","6","pic5.jpg","50","40","-15","3","flower3.jpg","50","58","-15","1","left_rectangle","15pct","15pct","-15","1","right_rectangle","15pct","85pct","-15","1","top          bottom","15","15","-15","1","top          top","15","85","-15","1","Press E","4","15","-15","1","Press I","4","85","-15"
"060417","21:05:35","629660402","347074539","4.0.10.0","1","5","RMTS_test_1","A_negative_synonyms_right","750","0","0","0","0","0","18","0","1094","0","1","middle_rectangle","50pct","50pct","-15","5","pic5.jpg","50","40","-15","5","insect5.jpg","50","58","-15","1","left_rectangle","15pct","15pct","-15","1","right_rectangle","15pct","85pct","-15","6","slow         fast","15","15","-15","6","slow         slow","15","85","-15","1","Press E","4","15","-15","1","Press I","4","85","-15"
"060417","21:05:35","629660402","347074539","4.0.10.0","1","6","RMTS_test_1","A_positive_antonyms_left","750","0","0","0","0","0","18","1","2788","0","1","middle_rectangle","50pct","50pct","-15","2","pic2.jpg","50","40","-15","5","flower5.jpg","50","58","-15","1","left_rectangle","15pct","15pct","-15","1","right_rectangle","15pct","85pct","-15","3","empty        full","15","15","-15","3","empty        empty","15","85","-15","1","Press E","4","15","-15","1","Press I","4","85","-15"
"060417","21:05:35","629660402","347074539","4.0.10.0","1","7","RMTS_test_1","A_negative_synonyms_right","750","0","0","0","0","0","18","0","2331","0","1","middle_rectangle","50pct","50pct","-15","6","pic5.jpg","50","40","-15","3","insect3.jpg","50","58","-15","1","left_rectangle","15pct","15pct","-15","1","right_rectangle","15pct","85pct","-15","6","slow         fast","15","15","-15","6","slow         slow","15","85","-15","1","Press E","4","15","-15","1","Press I","4","85","-15"
"060417","21:05:35","629660402","347074539","4.0.10.0","1","8","RMTS_test_1","A_positive_antonyms_left","750","0","0","0","0","0","18","1","1950","0","1","middle_rectangle","50pct","50pct","-15","5","pic5.jpg","50","40","-15","2","flower2.jpg","50","58","-15","1","left_rectangle","15pct","15pct","-15","1","right_rectangle","15pct","85pct","-15","3","empty        full","15","15","-15","3","empty        empty","15","85","-15","1","Press E","4","15","-15","1","Press I","4","85","-15"
"060417","21:05:35","629660402","347074539","4.0.10.0","1","9","RMTS_test_1","A_negative_synonyms_right","750","0","0","0","0","0","23","1","1656","0","1","middle_rectangle","50pct","50pct","-15","2","pic2.jpg","50","40","-15","2","insect2.jpg","50","58","-15","1","left_rectangle","15pct","15pct","-15","1","right_rectangle","15pct","85pct","-15","5","fast         slow","15","15","-15","5","fast         fast","15","85","-15","1","Press E","4","15","-15","1","Press I","4","85","-15"
"060417","21:05:35","629660402","347074539","4.0.10.0","1","10","RMTS_test_1","A_positive_antonyms_left","750","0","0","0","0","0","18","1","1510","0","1","middle_rectangle","50pct","50pct","-15","1","pic1.jpg","50","40","-15","4","flower4.jpg","50","58","-15","1","left_rectangle","15pct","15pct","-15","1","right_rectangle","15pct","85pct","-15","1","top          bottom","15","15","-15","1","top          top","15","85","-15","1","Press E","4","15","-15","1","Press I","4","85","-15"
"060417","21:05:35","629660402","347074539","4.0.10.0","1","11","RMTS_test_1","A_negative_synonyms_right","750","0","0","0","0","0","18","0","2389","0","1","middle_rectangle","50pct","50pct","-15","4","pic4.jpg","50","40","-15","4","insect4.jpg","50","58","-15","1","left_rectangle","15pct","15pct","-15","1","right_rectangle","15pct","85pct","-15","2","bottom       top","15","15","-15","2","bottom       bottom","15","85","-15","1","Press E","4","15","-15","1","Press I","4","85","-15"
"060417","21:05:35","629660402","347074539","4.0.10.0","1","12","RMTS_test_1","A_positive_antonyms_left","750","0","0","0","0","0","23","0","1666","0","1","middle_rectangle","50pct","50pct","-15","3","pic3.jpg","50","40","-15","6","flower6.jpg","50","58","-15","1","left_rectangle","15pct","15pct","-15","1","right_rectangle","15pct","85pct","-15","4","full         empty","15","15","-15","4","full         full","15","85","-15","1","Press E","4","15","-15","1","Press I","4","85","-15"
"060417","21:05:35","629660402","347074539","4.0.10.0","1","13","RMTS_test_1","A_negative_synonyms_right","750","0","0","0","0","0","23","1","1726","0","1","middle_rectangle","50pct","50pct","-15","6","pic5.jpg","50","40","-15","2","insect2.jpg","50","58","-15","1","left_rectangle","15pct","15pct","-15","1","right_rectangle","15pct","85pct","-15","5","fast         slow","15","15","-15","5","fast         fast","15","85","-15","1","Press E","4","15","-15","1","Press I","4","85","-15"
"060417","21:05:35","629660402","347074539","4.0.10.0","1","14","RMTS_test_1","A_positive_antonyms_left","750","0","0","0","0","0","23","0","2201","0","1","middle_rectangle","50pct","50pct","-15","5","pic5.jpg","50","40","-15","3","flower3.jpg","50","58","-15","1","left_rectangle","15pct","15pct","-15","1","right_rectangle","15pct","85pct","-15","1","top          bottom","15","15","-15","1","top          top","15","85","-15","1","Press E","4","15","-15","1","Press I","4","85","-15"
"060417","21:05:35","629660402","347074539","4.0.10.0","1","15","RMTS_test_1","A_negative_synonyms_right","750","0","0","0","0","0","18","0","1309","0","1","middle_rectangle","50pct","50pct","-15","3","pic3.jpg","50","40","-15","1","insect1.jpg","50","58","-15","1","left_rectangle","15pct","15pct","-15","1","right_rectangle","15pct","85pct","-15","4","full         empty","15","15","-15","4","full         full","15","85","-15","1","Press E","4","15","-15","1","Press I","4","85","-15"
"060417","21:05:35","629660402","347074539","4.0.10.0","1","16","RMTS_test_1","A_positive_antonyms_left","750","0","0","0","0","0","18","1","1976","0","1","middle_rectangle","50pct","50pct","-15","4","pic4.jpg","50","40","-15","2","flower2.jpg","50","58","-15","1","left_rectangle","15pct","15pct","-15","1","right_rectangle","15pct","85pct","-15","3","empty        full","15","15","-15","3","empty        empty","15","85","-15","1","Press E","4","15","-15","1","Press I","4","85","-15"
"060417","13:04:36","10404180","891714010","4.0.10.0","1","1","RMTS_test_1","A_negative_synonyms_right","750","0","0","0","0","0","18","0","3938","0","1","middle_rectangle","50pct","50pct","2","4","pic4.jpg","50","40","2","3","insect3.jpg","50","58","2","1","left_rectangle","15pct","15pct","2","1","right_rectangle","15pct","85pct","2","3","empty        full","15","15","2","3","empty        empty","15","85","2","1","Press E","4","15","2","1","Press I","4","85","2"
"060417","13:04:36","10404180","891714010","4.0.10.0","1","2","RMTS_test_1","A_positive_antonyms_left","750","0","0","0","0","0","18","1","802","0","1","middle_rectangle","50pct","50pct","1","5","pic5.jpg","50","40","1","4","flower4.jpg","50","58","1","1","left_rectangle","15pct","15pct","1","1","right_rectangle","15pct","85pct","1","6","slow         fast","15","15","1","6","slow         slow","15","85","1","1","Press E","4","15","1","1","Press I","4","85","1"
"060417","13:04:36","10404180","891714010","4.0.10.0","1","3","RMTS_test_1","A_negative_synonyms_right","750","0","0","0","0","0","23","1","259","0","1","middle_rectangle","50pct","50pct","1","3","pic3.jpg","50","40","1","1","insect1.jpg","50","58","1","1","left_rectangle","15pct","15pct","1","1","right_rectangle","15pct","85pct","1","2","bottom       top","15","15","1","2","bottom       bottom","15","85","1","1","Press E","4","15","1","1","Press I","4","85","1"
"060417","13:04:36","10404180","891714010","4.0.10.0","1","4","RMTS_test_1","A_positive_antonyms_left","750","0","0","0","0","0","18","1","329","0","1","middle_rectangle","50pct","50pct","1","6","pic5.jpg","50","40","1","1","flower1.jpg","50","58","1","1","left_rectangle","15pct","15pct","1","1","right_rectangle","15pct","85pct","1","5","fast         slow","15","15","1","5","fast         fast","15","85","1","1","Press E","4","15","1","1","Press I","4","85","1"
"060417","13:04:36","10404180","891714010","4.0.10.0","1","5","RMTS_test_1","A_negative_synonyms_right","750","0","0","0","0","0","23","1","29","0","1","middle_rectangle","50pct","50pct","1","2","pic2.jpg","50","40","1","4","insect4.jpg","50","58","1","1","left_rectangle","15pct","15pct","1","1","right_rectangle","15pct","85pct","1","4","full         empty","15","15","1","4","full         full","15","85","1","1","Press E","4","15","1","1","Press I","4","85","1"
"060417","13:04:36","10404180","891714010","4.0.10.0","1","6","RMTS_test_1","A_positive_antonyms_left","750","0","0","0","0","0","23","0","206","0","1","middle_rectangle","50pct","50pct","1","1","pic1.jpg","50","40","1","6","flower6.jpg","50","58","1","1","left_rectangle","15pct","15pct","1","1","right_rectangle","15pct","85pct","1","1","top          bottom","15","15","1","1","top          top","15","85","1","1","Press E","4","15","1","1","Press I","4","85","1"
"060417","13:04:36","10404180","891714010","4.0.10.0","1","7","RMTS_test_1","A_negative_synonyms_right","750","0","0","0","0","0","18","0","375","0","1","middle_rectangle","50pct","50pct","1","2","pic2.jpg","50","40","1","2","insect2.jpg","50","58","1","1","left_rectangle","15pct","15pct","1","1","right_rectangle","15pct","85pct","1","2","bottom       top","15","15","1","2","bottom       bottom","15","85","1","1","Press E","4","15","1","1","Press I","4","85","1"
"060417","13:04:36","10404180","891714010","4.0.10.0","1","8","RMTS_test_1","A_positive_antonyms_left","750","0","0","0","0","0","23","0","234","0","1","middle_rectangle","50pct","50pct","1","1","pic1.jpg","50","40","1","2","flower2.jpg","50","58","1","1","left_rectangle","15pct","15pct","1","1","right_rectangle","15pct","85pct","1","4","full         empty","15","15","1","4","full         full","15","85","1","1","Press E","4","15","1","1","Press I","4","85","1"
"060417","13:04:36","10404180","891714010","4.0.10.0","1","9","RMTS_test_1","A_negative_synonyms_right","750","0","0","0","0","0","18","0","945","0","1","middle_rectangle","50pct","50pct","1","3","pic3.jpg","50","40","1","5","insect5.jpg","50","58","1","1","left_rectangle","15pct","15pct","1","1","right_rectangle","15pct","85pct","1","1","top          bottom","15","15","1","1","top          top","15","85","1","1","Press E","4","15","1","1","Press I","4","85","1"
"060417","13:04:36","10404180","891714010","4.0.10.0","1","10","RMTS_test_1","A_positive_antonyms_left","750","0","0","0","0","0","23","0","268","0","1","middle_rectangle","50pct","50pct","1","5","pic5.jpg","50","40","1","3","flower3.jpg","50","58","1","1","left_rectangle","15pct","15pct","1","1","right_rectangle","15pct","85pct","1","6","slow         fast","15","15","1","6","slow         slow","15","85","1","1","Press E","4","15","1","1","Press I","4","85","1"
"060417","13:04:36","10404180","891714010","4.0.10.0","1","11","RMTS_test_1","A_negative_synonyms_right","750","0","0","0","0","0","23","1","466","0","1","middle_rectangle","50pct","50pct","1","6","pic5.jpg","50","40","1","6","insect6.jpg","50","58","1","1","left_rectangle","15pct","15pct","1","1","right_rectangle","15pct","85pct","1","3","empty        full","15","15","1","3","empty        empty","15","85","1","1","Press E","4","15","1","1","Press I","4","85","1"
"060417","13:04:36","10404180","891714010","4.0.10.0","1","12","RMTS_test_1","A_positive_antonyms_left","750","0","0","0","0","0","18","1","2","0","1","middle_rectangle","50pct","50pct","1","4","pic4.jpg","50","40","1","5","flower5.jpg","50","58","1","1","left_rectangle","15pct","15pct","1","1","right_rectangle","15pct","85pct","1","5","fast         slow","15","15","1","5","fast         fast","15","85","1","1","Press E","4","15","1","1","Press I","4","85","1"
"060417","13:04:36","10404180","891714010","4.0.10.0","1","13","RMTS_test_1","A_negative_synonyms_right","750","0","0","0","0","0","23","1","241","0","1","middle_rectangle","50pct","50pct","1","6","pic5.jpg","50","40","1","5","insect5.jpg","50","58","1","1","left_rectangle","15pct","15pct","1","1","right_rectangle","15pct","85pct","1","2","bottom       top","15","15","1","2","bottom       bottom","15","85","1","1","Press E","4","15","1","1","Press I","4","85","1"
"060417","13:04:36","10404180","891714010","4.0.10.0","1","14","RMTS_test_1","A_positive_antonyms_left","750","0","0","0","0","0","23","0","505","0","1","middle_rectangle","50pct","50pct","1","3","pic3.jpg","50","40","1","3","flower3.jpg","50","58","1","1","left_rectangle","15pct","15pct","1","1","right_rectangle","15pct","85pct","1","3","empty        full","15","15","1","3","empty        empty","15","85","1","1","Press E","4","15","1","1","Press I","4","85","1"
"060417","13:04:36","10404180","891714010","4.0.10.0","1","15","RMTS_test_1","A_negative_synonyms_right","750","0","0","0","0","0","18","0","245","0","1","middle_rectangle","50pct","50pct","1","1","pic1.jpg","50","40","1","1","insect1.jpg","50","58","1","1","left_rectangle","15pct","15pct","1","1","right_rectangle","15pct","85pct","1","1","top          bottom","15","15","1","1","top          top","15","85","1","1","Press E","4","15","1","1","Press I","4","85","1"
"060417","13:04:36","10404180","891714010","4.0.10.0","1","16","RMTS_test_1","A_positive_antonyms_left","750","0","0","0","0","0","18","1","509","0","1","middle_rectangle","50pct","50pct","1","4","pic4.jpg","50","40","1","6","flower6.jpg","50","58","1","1","left_rectangle","15pct","15pct","1","1","right_rectangle","15pct","85pct","1","4","full         empty","15","15","1","4","full         full","15","85","1","1","Press E","4","15","1","1","Press I","4","85","1"
"060417","20:57:28","425743518","728533097","4.0.10.0","1","1","RMTS_test_1","A_positive_antonyms_left","750","0","0","0","0","0","23","0","2472","0","1","middle_rectangle","50pct","50pct","3","1","pic1.jpg","50","40","3","1","flower1.jpg","50","58","3","1","left_rectangle","15pct","15pct","3","1","right_rectangle","15pct","85pct","3","5","fast         slow","15","15","3","5","fast         fast","15","85","3","1","Press E","4","15","3","1","Press I","4","85","3"
"060417","20:57:28","425743518","728533097","4.0.10.0","1","2","RMTS_test_1","A_negative_synonyms_right","750","0","0","0","0","0","18","0","2542","0","1","middle_rectangle","50pct","50pct","3","2","pic2.jpg","50","40","3","1","insect1.jpg","50","58","3","1","left_rectangle","15pct","15pct","3","1","right_rectangle","15pct","85pct","3","3","empty        full","15","15","3","3","empty        empty","15","85","3","1","Press E","4","15","3","1","Press I","4","85","3"
"060417","20:57:28","425743518","728533097","4.0.10.0","1","3","RMTS_test_1","A_positive_antonyms_left","750","0","0","0","0","0","23","0","1725","0","1","middle_rectangle","50pct","50pct","2","6","pic5.jpg","50","40","2","2","flower2.jpg","50","58","2","1","left_rectangle","15pct","15pct","2","1","right_rectangle","15pct","85pct","2","2","bottom       top","15","15","2","2","bottom       bottom","15","85","2","1","Press E","4","15","2","1","Press I","4","85","2"
"060417","20:57:28","425743518","728533097","4.0.10.0","1","4","RMTS_test_1","A_negative_synonyms_right","750","0","0","0","0","0","23","1","3564","0","1","middle_rectangle","50pct","50pct","2","4","pic4.jpg","50","40","2","2","insect2.jpg","50","58","2","1","left_rectangle","15pct","15pct","2","1","right_rectangle","15pct","85pct","2","6","slow         fast","15","15","2","6","slow         slow","15","85","2","1","Press E","4","15","2","1","Press I","4","85","2"
"060417","20:57:28","425743518","728533097","4.0.10.0","1","5","RMTS_test_1","A_positive_antonyms_left","750","0","0","0","0","0","18","1","3465","0","1","middle_rectangle","50pct","50pct","2","3","pic3.jpg","50","40","2","6","flower6.jpg","50","58","2","1","left_rectangle","15pct","15pct","2","1","right_rectangle","15pct","85pct","2","1","top          bottom","15","15","2","1","top          top","15","85","2","1","Press E","4","15","2","1","Press I","4","85","2"
"060417","20:57:28","425743518","728533097","4.0.10.0","1","6","RMTS_test_1","A_negative_synonyms_right","750","0","0","0","0","0","23","1","938","0","1","middle_rectangle","50pct","50pct","2","5","pic5.jpg","50","40","2","3","insect3.jpg","50","58","2","1","left_rectangle","15pct","15pct","2","1","right_rectangle","15pct","85pct","2","4","full         empty","15","15","2","4","full         full","15","85","2","1","Press E","4","15","2","1","Press I","4","85","2"
"060417","20:57:28","425743518","728533097","4.0.10.0","1","7","RMTS_test_1","A_positive_antonyms_left","750","0","0","0","0","0","18","1","2136","0","1","middle_rectangle","50pct","50pct","2","6","pic5.jpg","50","40","2","3","flower3.jpg","50","58","2","1","left_rectangle","15pct","15pct","2","1","right_rectangle","15pct","85pct","2","6","slow         fast","15","15","2","6","slow         slow","15","85","2","1","Press E","4","15","2","1","Press I","4","85","2"
"060417","20:57:28","425743518","728533097","4.0.10.0","1","8","RMTS_test_1","A_negative_synonyms_right","750","0","0","0","0","0","18","0","1778","0","1","middle_rectangle","50pct","50pct","2","3","pic3.jpg","50","40","2","4","insect4.jpg","50","58","2","1","left_rectangle","15pct","15pct","2","1","right_rectangle","15pct","85pct","2","1","top          bottom","15","15","2","1","top          top","15","85","2","1","Press E","4","15","2","1","Press I","4","85","2"
"060417","20:57:28","425743518","728533097","4.0.10.0","1","9","RMTS_test_1","A_positive_antonyms_left","750","0","0","0","0","0","18","1","2365","0","1","middle_rectangle","50pct","50pct","2","5","pic5.jpg","50","40","2","4","flower4.jpg","50","58","2","1","left_rectangle","15pct","15pct","2","1","right_rectangle","15pct","85pct","2","3","empty        full","15","15","2","3","empty        empty","15","85","2","1","Press E","4","15","2","1","Press I","4","85","2"
"060417","20:57:28","425743518","728533097","4.0.10.0","1","10","RMTS_test_1","A_negative_synonyms_right","750","0","0","0","0","0","23","1","1526","0","1","middle_rectangle","50pct","50pct","2","1","pic1.jpg","50","40","2","6","insect6.jpg","50","58","2","1","left_rectangle","15pct","15pct","2","1","right_rectangle","15pct","85pct","2","2","bottom       top","15","15","2","2","bottom       bottom","15","85","2","1","Press E","4","15","2","1","Press I","4","85","2"
"060417","20:57:28","425743518","728533097","4.0.10.0","1","11","RMTS_test_1","A_positive_antonyms_left","750","0","0","0","0","0","23","0","1277","0","1","middle_rectangle","50pct","50pct","2","2","pic2.jpg","50","40","2","5","flower5.jpg","50","58","2","1","left_rectangle","15pct","15pct","2","1","right_rectangle","15pct","85pct","2","5","fast         slow","15","15","2","5","fast         fast","15","85","2","1","Press E","4","15","2","1","Press I","4","85","2"
"060417","20:57:28","425743518","728533097","4.0.10.0","1","12","RMTS_test_1","A_negative_synonyms_right","750","0","0","0","0","0","23","1","2525","0","1","middle_rectangle","50pct","50pct","2","4","pic4.jpg","50","40","2","5","insect5.jpg","50","58","2","1","left_rectangle","15pct","15pct","2","1","right_rectangle","15pct","85pct","2","4","full         empty","15","15","2","4","full         full","15","85","2","1","Press E","4","15","2","1","Press I","4","85","2"
"060417","20:57:28","425743518","728533097","4.0.10.0","1","13","RMTS_test_1","A_positive_antonyms_left","750","0","0","0","0","0","23","0","2110","0","1","middle_rectangle","50pct","50pct","2","3","pic3.jpg","50","40","2","1","flower1.jpg","50","58","2","1","left_rectangle","15pct","15pct","2","1","right_rectangle","15pct","85pct","2","2","bottom       top","15","15","2","2","bottom       bottom","15","85","2","1","Press E","4","15","2","1","Press I","4","85","2"
"060417","20:57:28","425743518","728533097","4.0.10.0","1","14","RMTS_test_1","A_negative_synonyms_right","750","0","0","0","0","0","23","1","1929","0","1","middle_rectangle","50pct","50pct","1","4","pic4.jpg","50","40","1","4","insect4.jpg","50","58","1","1","left_rectangle","15pct","15pct","1","1","right_rectangle","15pct","85pct","1","3","empty        full","15","15","1","3","empty        empty","15","85","1","1","Press E","4","15","1","1","Press I","4","85","1"
"060417","20:57:28","425743518","728533097","4.0.10.0","1","15","RMTS_test_1","A_positive_antonyms_left","750","0","0","0","0","0","18","1","2503","0","1","middle_rectangle","50pct","50pct","1","5","pic5.jpg","50","40","1","6","flower6.jpg","50","58","1","1","left_rectangle","15pct","15pct","1","1","right_rectangle","15pct","85pct","1","1","top          bottom","15","15","1","1","top          top","15","85","1","1","Press E","4","15","1","1","Press I","4","85","1"
"060417","20:57:28","425743518","728533097","4.0.10.0","1","16","RMTS_test_1","A_negative_synonyms_right","750","0","0","0","0","0","18","0","1630","0","1","middle_rectangle","50pct","50pct","1","2","pic2.jpg","50","40","1","1","insect1.jpg","50","58","1","1","left_rectangle","15pct","15pct","1","1","right_rectangle","15pct","85pct","1","5","fast         slow","15","15","1","5","fast         fast","15","85","1","1","Press E","4","15","1","1","Press I","4","85","1"
"060417","15:56:39","337976538","647995710","4.0.10.0","1","1","RMTS_test_2","A_negative_antonyms_left","750","0","0","0","0","0","18","1","9979","0","1","middle_rectangle","50pct","50pct","1","6","pic5.jpg","50","40","1","6","insect6.jpg","50","58","1","1","left_rectangle","15pct","15pct","1","1","right_rectangle","15pct","85pct","1","4","full         empty","15","15","1","4","full         full","15","85","1","1","Press E","4","15","1","1","Press I","4","85","1"
"060417","15:56:39","337976538","647995710","4.0.10.0","1","2","RMTS_test_2","A_positive_synonyms_right","750","0","0","0","0","0","18","0","5801","0","1","middle_rectangle","50pct","50pct","1","1","pic1.jpg","50","40","1","4","flower4.jpg","50","58","1","1","left_rectangle","15pct","15pct","1","1","right_rectangle","15pct","85pct","1","3","empty        full","15","15","1","3","empty        empty","15","85","1","1","Press E","4","15","1","1","Press I","4","85","1"
"060417","15:56:39","337976538","647995710","4.0.10.0","1","3","RMTS_test_2","A_negative_antonyms_left","750","0","0","0","0","0","18","1","2021","0","1","middle_rectangle","50pct","50pct","1","5","pic5.jpg","50","40","1","2","insect2.jpg","50","58","1","1","left_rectangle","15pct","15pct","1","1","right_rectangle","15pct","85pct","1","6","slow         fast","15","15","1","6","slow         slow","15","85","1","1","Press E","4","15","1","1","Press I","4","85","1"
"060417","15:56:39","337976538","647995710","4.0.10.0","1","4","RMTS_test_2","A_positive_synonyms_right","750","0","0","0","0","0","18","0","2263","0","1","middle_rectangle","50pct","50pct","1","2","pic2.jpg","50","40","1","1","flower1.jpg","50","58","1","1","left_rectangle","15pct","15pct","1","1","right_rectangle","15pct","85pct","1","2","bottom       top","15","15","1","2","bottom       bottom","15","85","1","1","Press E","4","15","1","1","Press I","4","85","1"
"060417","15:56:39","337976538","647995710","4.0.10.0","1","5","RMTS_test_2","A_negative_antonyms_left","750","0","0","0","0","0","18","1","2000","0","1","middle_rectangle","50pct","50pct","1","3","pic3.jpg","50","40","1","5","insect5.jpg","50","58","1","1","left_rectangle","15pct","15pct","1","1","right_rectangle","15pct","85pct","1","5","fast         slow","15","15","1","5","fast         fast","15","85","1","1","Press E","4","15","1","1","Press I","4","85","1"
"060417","15:56:39","337976538","647995710","4.0.10.0","1","6","RMTS_test_2","A_positive_synonyms_right","750","0","0","0","0","0","18","0","1403","0","1","middle_rectangle","50pct","50pct","1","4","pic4.jpg","50","40","1","6","flower6.jpg","50","58","1","1","left_rectangle","15pct","15pct","1","1","right_rectangle","15pct","85pct","1","1","top          bottom","15","15","1","1","top          top","15","85","1","1","Press E","4","15","1","1","Press I","4","85","1"
"060417","15:56:39","337976538","647995710","4.0.10.0","1","7","RMTS_test_2","A_negative_antonyms_left","750","0","0","0","0","0","18","1","3125","0","1","middle_rectangle","50pct","50pct","1","2","pic2.jpg","50","40","1","1","insect1.jpg","50","58","1","1","left_rectangle","15pct","15pct","1","1","right_rectangle","15pct","85pct","1","6","slow         fast","15","15","1","6","slow         slow","15","85","1","1","Press E","4","15","1","1","Press I","4","85","1"
"060417","15:56:39","337976538","647995710","4.0.10.0","1","8","RMTS_test_2","A_positive_synonyms_right","750","0","0","0","0","0","18","0","3836","0","1","middle_rectangle","50pct","50pct","1","6","pic5.jpg","50","40","1","5","flower5.jpg","50","58","1","1","left_rectangle","15pct","15pct","1","1","right_rectangle","15pct","85pct","1","1","top          bottom","15","15","1","1","top          top","15","85","1","1","Press E","4","15","1","1","Press I","4","85","1"
"060417","15:56:39","337976538","647995710","4.0.10.0","1","9","RMTS_test_2","A_negative_antonyms_left","750","0","0","0","0","0","18","1","1006","0","1","middle_rectangle","50pct","50pct","1","4","pic4.jpg","50","40","1","3","insect3.jpg","50","58","1","1","left_rectangle","15pct","15pct","1","1","right_rectangle","15pct","85pct","1","5","fast         slow","15","15","1","5","fast         fast","15","85","1","1","Press E","4","15","1","1","Press I","4","85","1"
"060417","15:56:39","337976538","647995710","4.0.10.0","1","10","RMTS_test_2","A_positive_synonyms_right","750","0","0","0","0","0","18","0","472","0","1","middle_rectangle","50pct","50pct","1","5","pic5.jpg","50","40","1","2","flower2.jpg","50","58","1","1","left_rectangle","15pct","15pct","1","1","right_rectangle","15pct","85pct","1","4","full         empty","15","15","1","4","full         full","15","85","1","1","Press E","4","15","1","1","Press I","4","85","1"
"060417","15:56:39","337976538","647995710","4.0.10.0","1","11","RMTS_test_2","A_negative_antonyms_left","750","0","0","0","0","0","18","1","1280","0","1","middle_rectangle","50pct","50pct","1","3","pic3.jpg","50","40","1","4","insect4.jpg","50","58","1","1","left_rectangle","15pct","15pct","1","1","right_rectangle","15pct","85pct","1","2","bottom       top","15","15","1","2","bottom       bottom","15","85","1","1","Press E","4","15","1","1","Press I","4","85","1"
"060417","15:56:39","337976538","647995710","4.0.10.0","1","12","RMTS_test_2","A_positive_synonyms_right","750","0","0","0","0","0","18","0","968","0","1","middle_rectangle","50pct","50pct","1","1","pic1.jpg","50","40","1","3","flower3.jpg","50","58","1","1","left_rectangle","15pct","15pct","1","1","right_rectangle","15pct","85pct","1","3","empty        full","15","15","1","3","empty        empty","15","85","1","1","Press E","4","15","1","1","Press I","4","85","1"
"060417","15:56:39","337976538","647995710","4.0.10.0","1","13","RMTS_test_2","A_negative_antonyms_left","750","0","0","0","0","0","18","1","580","0","1","middle_rectangle","50pct","50pct","1","5","pic5.jpg","50","40","1","1","insect1.jpg","50","58","1","1","left_rectangle","15pct","15pct","1","1","right_rectangle","15pct","85pct","1","1","top          bottom","15","15","1","1","top          top","15","85","1","1","Press E","4","15","1","1","Press I","4","85","1"
"060417","15:56:39","337976538","647995710","4.0.10.0","1","14","RMTS_test_2","A_positive_synonyms_right","750","0","0","0","0","0","18","0","1079","0","1","middle_rectangle","50pct","50pct","1","1","pic1.jpg","50","40","1","5","flower5.jpg","50","58","1","1","left_rectangle","15pct","15pct","1","1","right_rectangle","15pct","85pct","1","4","full         empty","15","15","1","4","full         full","15","85","1","1","Press E","4","15","1","1","Press I","4","85","1"
"060417","15:56:39","337976538","647995710","4.0.10.0","1","15","RMTS_test_2","A_negative_antonyms_left","750","0","0","0","0","0","18","1","1223","0","1","middle_rectangle","50pct","50pct","1","6","pic5.jpg","50","40","1","3","insect3.jpg","50","58","1","1","left_rectangle","15pct","15pct","1","1","right_rectangle","15pct","85pct","1","6","slow         fast","15","15","1","6","slow         slow","15","85","1","1","Press E","4","15","1","1","Press I","4","85","1"
"060417","15:56:39","337976538","647995710","4.0.10.0","1","16","RMTS_test_2","A_positive_synonyms_right","750","0","0","0","0","0","18","0","673","0","1","middle_rectangle","50pct","50pct","1","3","pic3.jpg","50","40","1","6","flower6.jpg","50","58","1","1","left_rectangle","15pct","15pct","1","1","right_rectangle","15pct","85pct","1","3","empty        full","15","15","1","3","empty        empty","15","85","1","1","Press E","4","15","1","1","Press I","4","85","1"
"060417","20:55:21","535351414","133849929","4.0.10.0","1","1","RMTS_test_1","A_negative_synonyms_right","750","0","0","0","0","0","23","1","9991","0","1","middle_rectangle","50pct","50pct","-16","3","pic3.jpg","50","40","-16","2","insect2.jpg","50","58","-16","1","left_rectangle","15pct","15pct","-16","1","right_rectangle","15pct","85pct","-16","5","fast         slow","15","15","-16","5","fast         fast","15","85","-16","1","Press E","4","15","-16","1","Press I","4","85","-16"
"060417","20:55:21","535351414","133849929","4.0.10.0","1","2","RMTS_test_1","A_positive_antonyms_left","750","0","0","0","0","0","18","1","4154","0","1","middle_rectangle","50pct","50pct","-16","6","pic5.jpg","50","40","-16","3","flower3.jpg","50","58","-16","1","left_rectangle","15pct","15pct","-16","1","right_rectangle","15pct","85pct","-16","1","top          bottom","15","15","-16","1","top          top","15","85","-16","1","Press E","4","15","-16","1","Press I","4","85","-16"
"060417","20:55:21","535351414","133849929","4.0.10.0","1","3","RMTS_test_1","A_negative_synonyms_right","750","0","0","0","0","0","23","1","3736","0","1","middle_rectangle","50pct","50pct","-16","2","pic2.jpg","50","40","-16","1","insect1.jpg","50","58","-16","1","left_rectangle","15pct","15pct","-16","1","right_rectangle","15pct","85pct","-16","4","full         empty","15","15","-16","4","full         full","15","85","-16","1","Press E","4","15","-16","1","Press I","4","85","-16"
"060417","20:55:21","535351414","133849929","4.0.10.0","1","4","RMTS_test_1","A_positive_antonyms_left","750","0","0","0","0","0","18","1","2463","0","1","middle_rectangle","50pct","50pct","-16","5","pic5.jpg","50","40","-16","2","flower2.jpg","50","58","-16","1","left_rectangle","15pct","15pct","-16","1","right_rectangle","15pct","85pct","-16","3","empty        full","15","15","-16","3","empty        empty","15","85","-16","1","Press E","4","15","-16","1","Press I","4","85","-16"
"060417","20:55:21","535351414","133849929","4.0.10.0","1","5","RMTS_test_1","A_negative_synonyms_right","750","0","0","0","0","0","18","0","1810","0","1","middle_rectangle","50pct","50pct","-16","4","pic4.jpg","50","40","-16","3","insect3.jpg","50","58","-16","1","left_rectangle","15pct","15pct","-16","1","right_rectangle","15pct","85pct","-16","2","bottom       top","15","15","-16","2","bottom       bottom","15","85","-16","1","Press E","4","15","-16","1","Press I","4","85","-16"
"060417","20:55:21","535351414","133849929","4.0.10.0","1","6","RMTS_test_1","A_positive_antonyms_left","750","0","0","0","0","0","18","1","1358","0","1","middle_rectangle","50pct","50pct","-16","1","pic1.jpg","50","40","-16","4","flower4.jpg","50","58","-16","1","left_rectangle","15pct","15pct","-16","1","right_rectangle","15pct","85pct","-16","6","slow         fast","15","15","-16","6","slow         slow","15","85","-16","1","Press E","4","15","-16","1","Press I","4","85","-16"
"060417","20:55:21","535351414","133849929","4.0.10.0","1","7","RMTS_test_1","A_negative_synonyms_right","750","0","0","0","0","0","18","0","2840","0","1","middle_rectangle","50pct","50pct","-16","2","pic2.jpg","50","40","-16","5","insect5.jpg","50","58","-16","1","left_rectangle","15pct","15pct","-16","1","right_rectangle","15pct","85pct","-16","3","empty        full","15","15","-16","3","empty        empty","15","85","-16","1","Press E","4","15","-16","1","Press I","4","85","-16"
"060417","20:55:21","535351414","133849929","4.0.10.0","1","8","RMTS_test_1","A_positive_antonyms_left","750","0","0","0","0","0","18","1","4010","0","1","middle_rectangle","50pct","50pct","-16","5","pic5.jpg","50","40","-16","6","flower6.jpg","50","58","-16","1","left_rectangle","15pct","15pct","-16","1","right_rectangle","15pct","85pct","-16","2","bottom       top","15","15","-16","2","bottom       bottom","15","85","-16","1","Press E","4","15","-16","1","Press I","4","85","-16"
"060417","20:55:21","535351414","133849929","4.0.10.0","1","9","RMTS_test_1","A_negative_synonyms_right","750","0","0","0","0","0","23","1","1289","0","1","middle_rectangle","50pct","50pct","-16","3","pic3.jpg","50","40","-16","4","insect4.jpg","50","58","-16","1","left_rectangle","15pct","15pct","-16","1","right_rectangle","15pct","85pct","-16","6","slow         fast","15","15","-16","6","slow         slow","15","85","-16","1","Press E","4","15","-16","1","Press I","4","85","-16"
"060417","20:55:21","535351414","133849929","4.0.10.0","1","10","RMTS_test_1","A_positive_antonyms_left","750","0","0","0","0","0","18","1","1072","0","1","middle_rectangle","50pct","50pct","-16","4","pic4.jpg","50","40","-16","5","flower5.jpg","50","58","-16","1","left_rectangle","15pct","15pct","-16","1","right_rectangle","15pct","85pct","-16","1","top          bottom","15","15","-16","1","top          top","15","85","-16","1","Press E","4","15","-16","1","Press I","4","85","-16"
"060417","20:55:21","535351414","133849929","4.0.10.0","1","11","RMTS_test_1","A_negative_synonyms_right","750","0","0","0","0","0","23","1","4931","0","1","middle_rectangle","50pct","50pct","-16","1","pic1.jpg","50","40","-16","6","insect6.jpg","50","58","-16","1","left_rectangle","15pct","15pct","-16","1","right_rectangle","15pct","85pct","-16","5","fast         slow","15","15","-16","5","fast         fast","15","85","-16","1","Press E","4","15","-16","1","Press I","4","85","-16"
"060417","20:55:21","535351414","133849929","4.0.10.0","1","12","RMTS_test_1","A_positive_antonyms_left","750","0","0","0","0","0","18","1","742","0","1","middle_rectangle","50pct","50pct","-16","6","pic5.jpg","50","40","-16","1","flower1.jpg","50","58","-16","1","left_rectangle","15pct","15pct","-16","1","right_rectangle","15pct","85pct","-16","4","full         empty","15","15","-16","4","full         full","15","85","-16","1","Press E","4","15","-16","1","Press I","4","85","-16"
"060417","20:55:21","535351414","133849929","4.0.10.0","1","13","RMTS_test_1","A_negative_synonyms_right","750","0","0","0","0","0","18","0","7096","0","1","middle_rectangle","50pct","50pct","-16","4","pic4.jpg","50","40","-16","5","insect5.jpg","50","58","-16","1","left_rectangle","15pct","15pct","-16","1","right_rectangle","15pct","85pct","-16","6","slow         fast","15","15","-16","6","slow         slow","15","85","-16","1","Press E","4","15","-16","1","Press I","4","85","-16"
"060417","20:55:21","535351414","133849929","4.0.10.0","1","14","RMTS_test_1","A_positive_antonyms_left","750","0","0","0","0","0","18","1","1606","0","1","middle_rectangle","50pct","50pct","-16","2","pic2.jpg","50","40","-16","5","flower5.jpg","50","58","-16","1","left_rectangle","15pct","15pct","-16","1","right_rectangle","15pct","85pct","-16","5","fast         slow","15","15","-16","5","fast         fast","15","85","-16","1","Press E","4","15","-16","1","Press I","4","85","-16"
"060417","20:55:21","535351414","133849929","4.0.10.0","1","15","RMTS_test_1","A_negative_synonyms_right","750","0","0","0","0","0","23","1","2028","0","1","middle_rectangle","50pct","50pct","-16","5","pic5.jpg","50","40","-16","4","insect4.jpg","50","58","-16","1","left_rectangle","15pct","15pct","-16","1","right_rectangle","15pct","85pct","-16","3","empty        full","15","15","-16","3","empty        empty","15","85","-16","1","Press E","4","15","-16","1","Press I","4","85","-16"
"060417","20:55:21","535351414","133849929","4.0.10.0","1","16","RMTS_test_1","A_positive_antonyms_left","750","0","0","0","0","0","18","1","1820","0","1","middle_rectangle","50pct","50pct","-16","6","pic5.jpg","50","40","-16","6","flower6.jpg","50","58","-16","1","left_rectangle","15pct","15pct","-16","1","right_rectangle","15pct","85pct","-16","1","top          bottom","15","15","-16","1","top          top","15","85","-16","1","Press E","4","15","-16","1","Press I","4","85","-16"
"060417","14:54:23","495735348","627215132","4.0.10.0","1","1","RMTS_test_1","A_positive_antonyms_left","750","0","0","0","0","0","23","0","11266","0","1","middle_rectangle","50pct","50pct","1","6","pic5.jpg","50","40","1","3","flower3.jpg","50","58","1","1","left_rectangle","15pct","15pct","1","1","right_rectangle","15pct","85pct","1","5","fast         slow","15","15","1","5","fast         fast","15","85","1","1","Press E","4","15","1","1","Press I","4","85","1"
"060417","14:54:23","495735348","627215132","4.0.10.0","1","2","RMTS_test_1","A_negative_synonyms_right","750","0","0","0","0","0","23","1","6849","0","1","middle_rectangle","50pct","50pct","1","3","pic3.jpg","50","40","1","2","insect2.jpg","50","58","1","1","left_rectangle","15pct","15pct","1","1","right_rectangle","15pct","85pct","1","2","bottom       top","15","15","1","2","bottom       bottom","15","85","1","1","Press E","4","15","1","1","Press I","4","85","1"
"060417","14:54:23","495735348","627215132","4.0.10.0","1","3","RMTS_test_1","A_positive_antonyms_left","750","0","0","0","0","0","23","0","3032","0","1","middle_rectangle","50pct","50pct","1","1","pic1.jpg","50","40","1","2","flower2.jpg","50","58","1","1","left_rectangle","15pct","15pct","1","1","right_rectangle","15pct","85pct","1","1","top          bottom","15","15","1","1","top          top","15","85","1","1","Press E","4","15","1","1","Press I","4","85","1"
"060417","14:54:23","495735348","627215132","4.0.10.0","1","4","RMTS_test_1","A_negative_synonyms_right","750","0","0","0","0","0","18","0","5705","0","1","middle_rectangle","50pct","50pct","1","5","pic5.jpg","50","40","1","3","insect3.jpg","50","58","1","1","left_rectangle","15pct","15pct","1","1","right_rectangle","15pct","85pct","1","4","full         empty","15","15","1","4","full         full","15","85","1","1","Press E","4","15","1","1","Press I","4","85","1"
"060417","14:54:23","495735348","627215132","4.0.10.0","1","5","RMTS_test_1","A_positive_antonyms_left","750","0","0","0","0","0","23","0","1375","0","1","middle_rectangle","50pct","50pct","1","2","pic2.jpg","50","40","1","1","flower1.jpg","50","58","1","1","left_rectangle","15pct","15pct","1","1","right_rectangle","15pct","85pct","1","3","empty        full","15","15","1","3","empty        empty","15","85","1","1","Press E","4","15","1","1","Press I","4","85","1"
"060417","14:54:23","495735348","627215132","4.0.10.0","1","6","RMTS_test_1","A_negative_synonyms_right","750","0","0","0","0","0","18","0","1850","0","1","middle_rectangle","50pct","50pct","0","4","pic4.jpg","50","40","0","5","insect5.jpg","50","58","0","1","left_rectangle","15pct","15pct","0","1","right_rectangle","15pct","85pct","0","6","slow         fast","15","15","0","6","slow         slow","15","85","0","1","Press E","4","15","0","1","Press I","4","85","0"
"060417","14:54:23","495735348","627215132","4.0.10.0","1","7","RMTS_test_1","A_positive_antonyms_left","750","0","0","0","0","0","23","0","682","0","1","middle_rectangle","50pct","50pct","1","2","pic2.jpg","50","40","1","5","flower5.jpg","50","58","1","1","left_rectangle","15pct","15pct","1","1","right_rectangle","15pct","85pct","1","5","fast         slow","15","15","1","5","fast         fast","15","85","1","1","Press E","4","15","1","1","Press I","4","85","1"
"060417","14:54:23","495735348","627215132","4.0.10.0","1","8","RMTS_test_1","A_negative_synonyms_right","750","0","0","0","0","0","18","0","1177","0","1","middle_rectangle","50pct","50pct","1","1","pic1.jpg","50","40","1","4","insect4.jpg","50","58","1","1","left_rectangle","15pct","15pct","1","1","right_rectangle","15pct","85pct","1","1","top          bottom","15","15","1","1","top          top","15","85","1","1","Press E","4","15","1","1","Press I","4","85","1"
"060417","14:54:23","495735348","627215132","4.0.10.0","1","9","RMTS_test_1","A_positive_antonyms_left","750","0","0","0","0","0","23","0","693","0","1","middle_rectangle","50pct","50pct","0","3","pic3.jpg","50","40","0","4","flower4.jpg","50","58","0","1","left_rectangle","15pct","15pct","0","1","right_rectangle","15pct","85pct","0","6","slow         fast","15","15","0","6","slow         slow","15","85","0","1","Press E","4","15","0","1","Press I","4","85","0"
"060417","14:54:23","495735348","627215132","4.0.10.0","1","10","RMTS_test_1","A_negative_synonyms_right","750","0","0","0","0","0","18","0","1083","0","1","middle_rectangle","50pct","50pct","0","6","pic5.jpg","50","40","0","6","insect6.jpg","50","58","0","1","left_rectangle","15pct","15pct","0","1","right_rectangle","15pct","85pct","0","4","full         empty","15","15","0","4","full         full","15","85","0","1","Press E","4","15","0","1","Press I","4","85","0"
"060417","14:54:23","495735348","627215132","4.0.10.0","1","11","RMTS_test_1","A_positive_antonyms_left","750","0","0","0","0","0","23","0","1450","0","1","middle_rectangle","50pct","50pct","0","4","pic4.jpg","50","40","0","6","flower6.jpg","50","58","0","1","left_rectangle","15pct","15pct","0","1","right_rectangle","15pct","85pct","0","2","bottom       top","15","15","0","2","bottom       bottom","15","85","0","1","Press E","4","15","0","1","Press I","4","85","0"
"060417","14:54:23","495735348","627215132","4.0.10.0","1","12","RMTS_test_1","A_negative_synonyms_right","750","0","0","0","0","0","18","0","674","0","1","middle_rectangle","50pct","50pct","1","5","pic5.jpg","50","40","1","1","insect1.jpg","50","58","1","1","left_rectangle","15pct","15pct","1","1","right_rectangle","15pct","85pct","1","3","empty        full","15","15","1","3","empty        empty","15","85","1","1","Press E","4","15","1","1","Press I","4","85","1"
"060417","14:54:23","495735348","627215132","4.0.10.0","1","13","RMTS_test_1","A_positive_antonyms_left","750","0","0","0","0","0","23","0","521","0","1","middle_rectangle","50pct","50pct","0","2","pic2.jpg","50","40","0","2","flower2.jpg","50","58","0","1","left_rectangle","15pct","15pct","0","1","right_rectangle","15pct","85pct","0","5","fast         slow","15","15","0","5","fast         fast","15","85","0","1","Press E","4","15","0","1","Press I","4","85","0"
"060417","14:54:23","495735348","627215132","4.0.10.0","1","14","RMTS_test_1","A_negative_synonyms_right","750","0","0","0","0","0","18","0","958","0","1","middle_rectangle","50pct","50pct","1","6","pic5.jpg","50","40","1","3","insect3.jpg","50","58","1","1","left_rectangle","15pct","15pct","1","1","right_rectangle","15pct","85pct","1","3","empty        full","15","15","1","3","empty        empty","15","85","1","1","Press E","4","15","1","1","Press I","4","85","1"
"060417","14:54:23","495735348","627215132","4.0.10.0","1","15","RMTS_test_1","A_positive_antonyms_left","750","0","0","0","0","0","23","0","1018","0","1","middle_rectangle","50pct","50pct","1","1","pic1.jpg","50","40","1","4","flower4.jpg","50","58","1","1","left_rectangle","15pct","15pct","1","1","right_rectangle","15pct","85pct","1","2","bottom       top","15","15","1","2","bottom       bottom","15","85","1","1","Press E","4","15","1","1","Press I","4","85","1"
"060417","14:54:23","495735348","627215132","4.0.10.0","1","16","RMTS_test_1","A_negative_synonyms_right","750","0","0","0","0","0","18","0","667","0","1","middle_rectangle","50pct","50pct","1","3","pic3.jpg","50","40","1","5","insect5.jpg","50","58","1","1","left_rectangle","15pct","15pct","1","1","right_rectangle","15pct","85pct","1","4","full         empty","15","15","1","4","full         full","15","85","1","1","Press E","4","15","1","1","Press I","4","85","1"
"060417","20:59:06","324572874","493095005","4.0.10.0","1","1","RMTS_test_2","A_negative_antonyms_left","750","0","0","0","0","0","23","0","7982","0","1","middle_rectangle","50pct","50pct","16","6","pic5.jpg","50","40","16","2","insect2.jpg","50","58","16","1","left_rectangle","15pct","15pct","16","1","right_rectangle","15pct","85pct","16","4","full         empty","15","15","16","4","full         full","15","85","16","1","Press E","4","15","16","1","Press I","4","85","16"
"060417","20:59:06","324572874","493095005","4.0.10.0","1","2","RMTS_test_2","A_positive_synonyms_right","750","0","0","0","0","0","18","0","4108","0","1","middle_rectangle","50pct","50pct","2","2","pic2.jpg","50","40","2","5","flower5.jpg","50","58","2","1","left_rectangle","15pct","15pct","2","1","right_rectangle","15pct","85pct","2","2","bottom       top","15","15","2","2","bottom       bottom","15","85","2","1","Press E","4","15","2","1","Press I","4","85","2"
"060417","20:59:06","324572874","493095005","4.0.10.0","1","3","RMTS_test_2","A_negative_antonyms_left","750","0","0","0","0","0","23","0","6889","0","1","middle_rectangle","50pct","50pct","2","3","pic3.jpg","50","40","2","1","insect1.jpg","50","58","2","1","left_rectangle","15pct","15pct","2","1","right_rectangle","15pct","85pct","2","6","slow         fast","15","15","2","6","slow         slow","15","85","2","1","Press E","4","15","2","1","Press I","4","85","2"
"060417","20:59:06","324572874","493095005","4.0.10.0","1","4","RMTS_test_2","A_positive_synonyms_right","750","0","0","0","0","0","18","0","927","0","1","middle_rectangle","50pct","50pct","2","1","pic1.jpg","50","40","2","2","flower2.jpg","50","58","2","1","left_rectangle","15pct","15pct","2","1","right_rectangle","15pct","85pct","2","5","fast         slow","15","15","2","5","fast         fast","15","85","2","1","Press E","4","15","2","1","Press I","4","85","2"
"060417","20:59:06","324572874","493095005","4.0.10.0","1","5","RMTS_test_2","A_negative_antonyms_left","750","0","0","0","0","0","23","0","1121","0","1","middle_rectangle","50pct","50pct","2","4","pic4.jpg","50","40","2","5","insect5.jpg","50","58","2","1","left_rectangle","15pct","15pct","2","1","right_rectangle","15pct","85pct","2","1","top          bottom","15","15","2","1","top          top","15","85","2","1","Press E","4","15","2","1","Press I","4","85","2"
"060417","20:59:06","324572874","493095005","4.0.10.0","1","6","RMTS_test_2","A_positive_synonyms_right","750","0","0","0","0","0","23","1","1013","0","1","middle_rectangle","50pct","50pct","2","5","pic5.jpg","50","40","2","1","flower1.jpg","50","58","2","1","left_rectangle","15pct","15pct","2","1","right_rectangle","15pct","85pct","2","3","empty        full","15","15","2","3","empty        empty","15","85","2","1","Press E","4","15","2","1","Press I","4","85","2"
"060417","20:59:06","324572874","493095005","4.0.10.0","1","7","RMTS_test_2","A_negative_antonyms_left","750","0","0","0","0","0","18","1","3988","0","1","middle_rectangle","50pct","50pct","2","1","pic1.jpg","50","40","2","4","insect4.jpg","50","58","2","1","left_rectangle","15pct","15pct","2","1","right_rectangle","15pct","85pct","2","4","full         empty","15","15","2","4","full         full","15","85","2","1","Press E","4","15","2","1","Press I","4","85","2"
"060417","20:59:06","324572874","493095005","4.0.10.0","1","8","RMTS_test_2","A_positive_synonyms_right","750","0","0","0","0","0","18","0","2410","0","1","middle_rectangle","50pct","50pct","2","3","pic3.jpg","50","40","2","4","flower4.jpg","50","58","2","1","left_rectangle","15pct","15pct","2","1","right_rectangle","15pct","85pct","2","6","slow         fast","15","15","2","6","slow         slow","15","85","2","1","Press E","4","15","2","1","Press I","4","85","2"
"060417","20:59:06","324572874","493095005","4.0.10.0","1","9","RMTS_test_2","A_negative_antonyms_left","750","0","0","0","0","0","18","1","1886","0","1","middle_rectangle","50pct","50pct","3","2","pic2.jpg","50","40","3","6","insect6.jpg","50","58","3","1","left_rectangle","15pct","15pct","3","1","right_rectangle","15pct","85pct","3","2","bottom       top","15","15","3","2","bottom       bottom","15","85","3","1","Press E","4","15","3","1","Press I","4","85","3"
"060417","20:59:06","324572874","493095005","4.0.10.0","1","10","RMTS_test_2","A_positive_synonyms_right","750","0","0","0","0","0","18","0","793","0","1","middle_rectangle","50pct","50pct","3","6","pic5.jpg","50","40","3","3","flower3.jpg","50","58","3","1","left_rectangle","15pct","15pct","3","1","right_rectangle","15pct","85pct","3","1","top          bottom","15","15","3","1","top          top","15","85","3","1","Press E","4","15","3","1","Press I","4","85","3"
"060417","20:59:06","324572874","493095005","4.0.10.0","1","11","RMTS_test_2","A_negative_antonyms_left","750","0","0","0","0","0","23","0","376","0","1","middle_rectangle","50pct","50pct","2","4","pic4.jpg","50","40","2","3","insect3.jpg","50","58","2","1","left_rectangle","15pct","15pct","2","1","right_rectangle","15pct","85pct","2","3","empty        full","15","15","2","3","empty        empty","15","85","2","1","Press E","4","15","2","1","Press I","4","85","2"
"060417","20:59:06","324572874","493095005","4.0.10.0","1","12","RMTS_test_2","A_positive_synonyms_right","750","0","0","0","0","0","18","0","913","0","1","middle_rectangle","50pct","50pct","2","5","pic5.jpg","50","40","2","6","flower6.jpg","50","58","2","1","left_rectangle","15pct","15pct","2","1","right_rectangle","15pct","85pct","2","5","fast         slow","15","15","2","5","fast         fast","15","85","2","1","Press E","4","15","2","1","Press I","4","85","2"
"060417","20:59:06","324572874","493095005","4.0.10.0","1","13","RMTS_test_2","A_negative_antonyms_left","750","0","0","0","0","0","23","0","411","0","1","middle_rectangle","50pct","50pct","2","6","pic5.jpg","50","40","2","2","insect2.jpg","50","58","2","1","left_rectangle","15pct","15pct","2","1","right_rectangle","15pct","85pct","2","1","top          bottom","15","15","2","1","top          top","15","85","2","1","Press E","4","15","2","1","Press I","4","85","2"
"060417","20:59:06","324572874","493095005","4.0.10.0","1","14","RMTS_test_2","A_positive_synonyms_right","750","0","0","0","0","0","23","1","612","0","1","middle_rectangle","50pct","50pct","2","1","pic1.jpg","50","40","2","2","flower2.jpg","50","58","2","1","left_rectangle","15pct","15pct","2","1","right_rectangle","15pct","85pct","2","6","slow         fast","15","15","2","6","slow         slow","15","85","2","1","Press E","4","15","2","1","Press I","4","85","2"
"060417","20:59:06","324572874","493095005","4.0.10.0","1","15","RMTS_test_2","A_negative_antonyms_left","750","0","0","0","0","0","23","0","388","0","1","middle_rectangle","50pct","50pct","2","5","pic5.jpg","50","40","2","5","insect5.jpg","50","58","2","1","left_rectangle","15pct","15pct","2","1","right_rectangle","15pct","85pct","2","4","full         empty","15","15","2","4","full         full","15","85","2","1","Press E","4","15","2","1","Press I","4","85","2"
"060417","20:59:06","324572874","493095005","4.0.10.0","1","16","RMTS_test_2","A_positive_synonyms_right","750","0","0","0","0","0","18","0","260","0","1","middle_rectangle","50pct","50pct","2","3","pic3.jpg","50","40","2","1","flower1.jpg","50","58","2","1","left_rectangle","15pct","15pct","2","1","right_rectangle","15pct","85pct","2","2","bottom       top","15","15","2","2","bottom       bottom","15","85","2","1","Press E","4","15","2","1","Press I","4","85","2"
"060417","14:53:03","270797721","498755454","4.0.10.0","1","1","RMTS_test_2","A_positive_synonyms_right","750","0","0","0","0","0","18","0","6972","0","1","middle_rectangle","50pct","50pct","2","3","pic3.jpg","50","40","2","5","flower5.jpg","50","58","2","1","left_rectangle","15pct","15pct","2","1","right_rectangle","15pct","85pct","2","1","top          bottom","15","15","2","1","top          top","15","85","2","1","Press E","4","15","2","1","Press I","4","85","2"
"060417","14:53:03","270797721","498755454","4.0.10.0","1","2","RMTS_test_2","A_negative_antonyms_left","750","0","0","0","0","0","23","0","5313","0","1","middle_rectangle","50pct","50pct","3","2","pic2.jpg","50","40","3","3","insect3.jpg","50","58","3","1","left_rectangle","15pct","15pct","3","1","right_rectangle","15pct","85pct","3","2","bottom       top","15","15","3","2","bottom       bottom","15","85","3","1","Press E","4","15","3","1","Press I","4","85","3"
"060417","14:53:03","270797721","498755454","4.0.10.0","1","3","RMTS_test_2","A_positive_synonyms_right","750","0","0","0","0","0","23","1","3128","0","1","middle_rectangle","50pct","50pct","3","6","pic5.jpg","50","40","3","1","flower1.jpg","50","58","3","1","left_rectangle","15pct","15pct","3","1","right_rectangle","15pct","85pct","3","6","slow         fast","15","15","3","6","slow         slow","15","85","3","1","Press E","4","15","3","1","Press I","4","85","3"
"060417","14:53:03","270797721","498755454","4.0.10.0","1","4","RMTS_test_2","A_negative_antonyms_left","750","0","0","0","0","0","23","0","1981","0","1","middle_rectangle","50pct","50pct","3","5","pic5.jpg","50","40","3","2","insect2.jpg","50","58","3","1","left_rectangle","15pct","15pct","3","1","right_rectangle","15pct","85pct","3","4","full         empty","15","15","3","4","full         full","15","85","3","1","Press E","4","15","3","1","Press I","4","85","3"
"060417","14:53:03","270797721","498755454","4.0.10.0","1","5","RMTS_test_2","A_positive_synonyms_right","750","0","0","0","0","0","23","1","2497","0","1","middle_rectangle","50pct","50pct","3","4","pic4.jpg","50","40","3","6","flower6.jpg","50","58","3","1","left_rectangle","15pct","15pct","3","1","right_rectangle","15pct","85pct","3","5","fast         slow","15","15","3","5","fast         fast","15","85","3","1","Press E","4","15","3","1","Press I","4","85","3"
"060417","14:53:03","270797721","498755454","4.0.10.0","1","6","RMTS_test_2","A_negative_antonyms_left","750","0","0","0","0","0","23","0","2664","0","1","middle_rectangle","50pct","50pct","2","1","pic1.jpg","50","40","2","1","insect1.jpg","50","58","2","1","left_rectangle","15pct","15pct","2","1","right_rectangle","15pct","85pct","2","3","empty        full","15","15","2","3","empty        empty","15","85","2","1","Press E","4","15","2","1","Press I","4","85","2"
"060417","14:53:03","270797721","498755454","4.0.10.0","1","7","RMTS_test_2","A_positive_synonyms_right","750","0","0","0","0","0","23","1","1489","0","1","middle_rectangle","50pct","50pct","2","6","pic5.jpg","50","40","2","3","flower3.jpg","50","58","2","1","left_rectangle","15pct","15pct","2","1","right_rectangle","15pct","85pct","2","1","top          bottom","15","15","2","1","top          top","15","85","2","1","Press E","4","15","2","1","Press I","4","85","2"
"060417","14:53:03","270797721","498755454","4.0.10.0","1","8","RMTS_test_2","A_negative_antonyms_left","750","0","0","0","0","0","23","0","704","0","1","middle_rectangle","50pct","50pct","3","1","pic1.jpg","50","40","3","5","insect5.jpg","50","58","3","1","left_rectangle","15pct","15pct","3","1","right_rectangle","15pct","85pct","3","4","full         empty","15","15","3","4","full         full","15","85","3","1","Press E","4","15","3","1","Press I","4","85","3"
"060417","14:53:03","270797721","498755454","4.0.10.0","1","9","RMTS_test_2","A_positive_synonyms_right","750","0","0","0","0","0","23","1","1638","0","1","middle_rectangle","50pct","50pct","3","5","pic5.jpg","50","40","3","4","flower4.jpg","50","58","3","1","left_rectangle","15pct","15pct","3","1","right_rectangle","15pct","85pct","3","3","empty        full","15","15","3","3","empty        empty","15","85","3","1","Press E","4","15","3","1","Press I","4","85","3"
"060417","14:53:03","270797721","498755454","4.0.10.0","1","10","RMTS_test_2","A_negative_antonyms_left","750","0","0","0","0","0","23","0","3439","0","1","middle_rectangle","50pct","50pct","3","3","pic3.jpg","50","40","3","6","insect6.jpg","50","58","3","1","left_rectangle","15pct","15pct","3","1","right_rectangle","15pct","85pct","3","5","fast         slow","15","15","3","5","fast         fast","15","85","3","1","Press E","4","15","3","1","Press I","4","85","3"
"060417","14:53:03","270797721","498755454","4.0.10.0","1","11","RMTS_test_2","A_positive_synonyms_right","750","0","0","0","0","0","23","1","1737","0","1","middle_rectangle","50pct","50pct","3","4","pic4.jpg","50","40","3","2","flower2.jpg","50","58","3","1","left_rectangle","15pct","15pct","3","1","right_rectangle","15pct","85pct","3","6","slow         fast","15","15","3","6","slow         slow","15","85","3","1","Press E","4","15","3","1","Press I","4","85","3"
"060417","14:53:03","270797721","498755454","4.0.10.0","1","12","RMTS_test_2","A_negative_antonyms_left","750","0","0","0","0","0","23","0","2542","0","1","middle_rectangle","50pct","50pct","3","2","pic2.jpg","50","40","3","4","insect4.jpg","50","58","3","1","left_rectangle","15pct","15pct","3","1","right_rectangle","15pct","85pct","3","2","bottom       top","15","15","3","2","bottom       bottom","15","85","3","1","Press E","4","15","3","1","Press I","4","85","3"
"060417","14:53:03","270797721","498755454","4.0.10.0","1","13","RMTS_test_2","A_positive_synonyms_right","750","0","0","0","0","0","23","1","1995","0","1","middle_rectangle","50pct","50pct","3","6","pic5.jpg","50","40","3","4","flower4.jpg","50","58","3","1","left_rectangle","15pct","15pct","3","1","right_rectangle","15pct","85pct","3","5","fast         slow","15","15","3","5","fast         fast","15","85","3","1","Press E","4","15","3","1","Press I","4","85","3"
"060417","14:53:03","270797721","498755454","4.0.10.0","1","14","RMTS_test_2","A_negative_antonyms_left","750","0","0","0","0","0","18","1","2447","0","1","middle_rectangle","50pct","50pct","2","3","pic3.jpg","50","40","2","5","insect5.jpg","50","58","2","1","left_rectangle","15pct","15pct","2","1","right_rectangle","15pct","85pct","2","3","empty        full","15","15","2","3","empty        empty","15","85","2","1","Press E","4","15","2","1","Press I","4","85","2"
"060417","14:53:03","270797721","498755454","4.0.10.0","1","15","RMTS_test_2","A_positive_synonyms_right","750","0","0","0","0","0","23","1","1864","0","1","middle_rectangle","50pct","50pct","2","2","pic2.jpg","50","40","2","5","flower5.jpg","50","58","2","1","left_rectangle","15pct","15pct","2","1","right_rectangle","15pct","85pct","2","1","top          bottom","15","15","2","1","top          top","15","85","2","1","Press E","4","15","2","1","Press I","4","85","2"
"060417","14:53:03","270797721","498755454","4.0.10.0","1","16","RMTS_test_2","A_negative_antonyms_left","750","0","0","0","0","0","18","1","1663","0","1","middle_rectangle","50pct","50pct","3","4","pic4.jpg","50","40","3","3","insect3.jpg","50","58","3","1","left_rectangle","15pct","15pct","3","1","right_rectangle","15pct","85pct","3","6","slow         fast","15","15","3","6","slow         slow","15","85","3","1","Press E","4","15","3","1","Press I","4","85","3"
"060417","15:51:37","400780855","205768215","4.0.10.0","1","1","RMTS_test_2","A_negative_antonyms_left","750","0","0","0","0","0","18","1","9426","0","1","middle_rectangle","50pct","50pct","3","4","pic4.jpg","50","40","3","5","insect5.jpg","50","58","3","1","left_rectangle","15pct","15pct","3","1","right_rectangle","15pct","85pct","3","3","empty        full","15","15","3","3","empty        empty","15","85","3","1","Press E","4","15","3","1","Press I","4","85","3"
