"","date","time","group","subject","build","blocknum","trialnum","blockcode","trialcode","pretrialpause","posttrialpause","windowcenter","trialduration","trialtimeout","blocktimeout","response","correct","latency","inwindow"
"1","062117","15:56:30","565971031","26704522","4.0.10.0","1","2","demographics","age","0","0","0","0","0","0","22","1","2605","0"
"2","062117","15:56:30","565971031","26704522","4.0.10.0","1","3","demographics","gender","0","0","0","0","0","0","Male","1","3406","0"
"3","062117","10:29:20","881191013","258361238","4.0.10.0","1","2","demographics","age","0","0","0","0","0","0","36","1","4530","0"
"4","062117","10:29:20","881191013","258361238","4.0.10.0","1","3","demographics","gender","0","0","0","0","0","0","36","1","13434","0"
"5","062117","15:11:31","144951235","879999958","4.0.10.0","1","2","demographics","age","0","0","0","0","0","0","61","1","7989","0"
"6","062117","15:11:31","144951235","879999958","4.0.10.0","1","3","demographics","gender","0","0","0","0","0","0","female","1","5529","0"
"7","062117","15:03:29","793620863","170791088","4.0.10.0","1","2","demographics","age","0","0","0","0","0","0","32","1","3664","0"
"8","062117","15:03:29","793620863","170791088","4.0.10.0","1","3","demographics","gender","0","0","0","0","0","0","Female","1","9294","0"
"9","062117","15:02:49","662307054","428912064","4.0.10.0","1","2","demographics","age","0","0","0","0","0","0","36","1","4290","0"
"10","062117","15:02:49","662307054","428912064","4.0.10.0","1","3","demographics","gender","0","0","0","0","0","0","female","1","5776","0"
"11","062117","15:02:22","62951136","50686562","4.0.10.0","1","2","demographics","age","0","0","0","0","0","0","40","1","3692","0"
"12","062117","15:02:22","62951136","50686562","4.0.10.0","1","3","demographics","gender","0","0","0","0","0","0","FEMALE","1","5166","0"
"13","062117","15:01:56","144951235","879999958","4.0.10.0","1","2","demographics","age","0","0","0","0","0","0","61","1","4572","0"
"14","062117","15:01:56","144951235","879999958","4.0.10.0","1","3","demographics","gender","0","0","0","0","0","0","female","1","6162","0"
"15","062117","10:01:01","446007759","823457465","4.0.10.0","1","2","demographics","age","0","0","0","0","0","0","36","1","3090","0"
"16","062117","10:01:01","446007759","823457465","4.0.10.0","1","3","demographics","gender","0","0","0","0","0","0","male","1","4189","0"
"17","062117","14:59:41","689550033","677285459","4.0.10.0","1","2","demographics","age","0","0","0","0","0","0","27","1","3224","0"
"18","062117","14:59:41","689550033","677285459","4.0.10.0","1","3","demographics","gender","0","0","0","0","0","0","Female","1","2940","0"
"19","062117","07:59:00","316219805","471670683","4.0.10.0","1","2","demographics","age","0","0","0","0","0","0","25","1","2846","0"
"20","062117","07:59:00","316219805","471670683","4.0.10.0","1","3","demographics","gender","0","0","0","0","0","0","Male","1","3688","0"
"21","062117","09:59:06","720371518","431495949","4.0.10.0","1","2","demographics","age","0","0","0","0","0","0","32","1","2796","0"
"22","062117","09:59:06","720371518","431495949","4.0.10.0","1","3","demographics","gender","0","0","0","0","0","0","female","1","5288","0"
"23","062117","09:53:32","718789367","95370674","4.0.10.0","1","2","demographics","age","0","0","0","0","0","0","59","1","3740","0"
"24","062117","09:53:32","718789367","95370674","4.0.10.0","1","3","demographics","gender","0","0","0","0","0","0","female","1","4261","0"
"25","062117","14:58:11","92016996","858621994","4.0.10.0","1","2","demographics","age","0","0","0","0","0","0","33","1","3155","0"
"26","062117","14:58:11","92016996","858621994","4.0.10.0","1","3","demographics","gender","0","0","0","0","0","0","female","1","4625","0"
"27","060617","18:57:53","603677508","373876443","4.0.10.0","1","2","demographics","age","0","0","0","0","0","0","28","1","5729","0"
"28","060617","18:57:53","603677508","373876443","4.0.10.0","1","3","demographics","gender","0","0","0","0","0","0","female","1","6005","0"
"29","060617","19:56:25","901978231","1882272","4.0.10.0","1","2","demographics","age","0","0","0","0","0","0","43","1","2907","0"
"30","060617","19:56:25","901978231","1882272","4.0.10.0","1","3","demographics","gender","0","0","0","0","0","0","male","1","4329","0"
"31","060617","12:36:01","550816196","375336464","4.0.10.0","1","2","demographics","age","0","0","0","0","0","0","49","1","3277","0"
"32","060617","12:36:01","550816196","375336464","4.0.10.0","1","3","demographics","gender","0","0","0","0","0","0","Female","1","3954","0"
"33","060617","19:36:03","705947237","500270537","4.0.10.0","1","2","demographics","age","0","0","0","0","0","0","33","1","3118","0"
"34","060617","19:36:03","705947237","500270537","4.0.10.0","1","3","demographics","gender","0","0","0","0","0","0","female","1","5648","0"
"35","060617","11:33:11","104268403","74874835","4.0.10.0","1","2","demographics","age","0","0","0","0","0","0","48","1","2886","0"
"36","060617","11:33:11","104268403","74874835","4.0.10.0","1","3","demographics","gender","0","0","0","0","0","0","male","1","4088","0"
"37","060617","19:32:58","672297925","314274383","4.0.10.0","1","2","demographics","age","0","0","0","0","0","0","31","1","5079","0"
"38","060617","19:32:58","672297925","314274383","4.0.10.0","1","3","demographics","gender","0","0","0","0","0","0","Female","1","7007","0"
"39","060617","14:32:06","199907333","918057199","4.0.10.0","1","2","demographics","age","0","0","0","0","0","0","18","1","3026","0"
"40","060617","14:32:06","199907333","918057199","4.0.10.0","1","3","demographics","gender","0","0","0","0","0","0","Male","1","3010","0"
"41","060617","19:31:20","226605828","742786880","4.0.10.0","1","2","demographics","age","0","0","0","0","0","0","55","1","6638","0"
"42","060617","19:31:20","226605828","742786880","4.0.10.0","1","3","demographics","gender","0","0","0","0","0","0","Female","1","12014","0"
"43","060617","13:30:51","244246070","976870162","4.0.10.0","1","2","demographics","age","0","0","0","0","0","0","24","1","2497","0"
"44","060617","13:30:51","244246070","976870162","4.0.10.0","1","3","demographics","gender","0","0","0","0","0","0","female","1","2493","0"
"45","060617","13:30:20","606005207","644806296","4.0.10.0","1","2","demographics","age","0","0","0","0","0","0","44","1","3223","0"
"46","060617","13:30:20","606005207","644806296","4.0.10.0","1","3","demographics","gender","0","0","0","0","0","0","female","1","3790","0"
"47","060617","19:30:46","306586780","635301861","4.0.10.0","1","2","demographics","age","0","0","0","0","0","0","27","1","8685","0"
"48","060617","19:30:46","306586780","635301861","4.0.10.0","1","3","demographics","gender","0","0","0","0","0","0","Female","1","8295","0"
"49","060617","14:30:25","199907333","918057199","4.0.10.0","1","2","demographics","age","0","0","0","0","0","0","18","1","3625","0"
"50","060617","14:30:25","199907333","918057199","4.0.10.0","1","3","demographics","gender","0","0","0","0","0","0","Male","1","3347","0"
"51","060617","19:30:22","712804430","354780889","4.0.10.0","1","2","demographics","age","0","0","0","0","0","0","47","1","3317","0"
"52","060617","19:30:22","712804430","354780889","4.0.10.0","1","3","demographics","gender","0","0","0","0","0","0","MALE","1","4806","0"
"53","060617","19:30:18","319760535","572302195","4.0.10.0","1","2","demographics","age","0","0","0","0","0","0","40","1","3474","0"
"54","060617","19:30:18","319760535","572302195","4.0.10.0","1","3","demographics","gender","0","0","0","0","0","0","female","1","6831","0"
"55","060617","19:30:03","485796497","903926114","4.0.10.0","1","2","demographics","age","0","0","0","0","0","0","25","1","3408","0"
"56","060617","19:30:03","485796497","903926114","4.0.10.0","1","3","demographics","gender","0","0","0","0","0","0","female ","1","4347","0"
"57","060617","19:29:52","549598235","496857294","4.0.10.0","1","2","demographics","age","0","0","0","0","0","0","43","1","3235","0"
"58","060617","19:29:52","549598235","496857294","4.0.10.0","1","3","demographics","gender","0","0","0","0","0","0","female","1","4136","0"
"59","060617","19:29:23","150394087","960674901","4.0.10.0","1","2","demographics","age","0","0","0","0","0","0","57","1","3681","0"
"60","060617","19:29:23","150394087","960674901","4.0.10.0","1","3","demographics","gender","0","0","0","0","0","0","Female","1","8259","0"
"61","060617","19:29:10","283729795","941074849","4.0.10.0","1","2","demographics","age","0","0","0","0","0","0","45","1","4122","0"
"62","060617","19:29:10","283729795","941074849","4.0.10.0","1","3","demographics","gender","0","0","0","0","0","0","female","1","8291","0"
"63","060617","19:28:58","671872609","702058078","4.0.10.0","1","2","demographics","age","0","0","0","0","0","0","35","1","2884","0"
"64","060617","19:28:58","671872609","702058078","4.0.10.0","1","3","demographics","gender","0","0","0","0","0","0","Male","1","3304","0"
"65","060617","14:29:00","78546022","895312272","4.0.10.0","1","2","demographics","age","0","0","0","0","0","0","29","1","2286","0"
"66","060617","14:29:00","78546022","895312272","4.0.10.0","1","3","demographics","gender","0","0","0","0","0","0","Male","1","3539","0"
"67","060617","13:57:59","989023509","859520229","4.0.10.0","1","2","demographics","age","0","0","0","0","0","0","45","1","2637","0"
"68","060617","13:57:59","989023509","859520229","4.0.10.0","1","3","demographics","gender","0","0","0","0","0","0","female","1","4433","0"
"69","060617","10:48:16","178600737","100479579","4.0.10.0","1","2","demographics","age","0","0","0","0","0","0","31","1","3448","0"
"70","060617","10:48:16","178600737","100479579","4.0.10.0","1","3","demographics","gender","0","0","0","0","0","0","Female","1","4263","0"
"71","060617","18:48:37","471863558","441575607","4.0.10.0","1","2","demographics","age","0","0","0","0","0","0","23","1","2192","0"
"72","060617","18:48:37","471863558","441575607","4.0.10.0","1","3","demographics","gender","0","0","0","0","0","0","Male","1","2472","0"
"73","060617","18:47:32","471863558","441575607","4.0.10.0","1","2","demographics","age","0","0","0","0","0","0","23","1","3104","0"
"74","060617","18:47:32","471863558","441575607","4.0.10.0","1","3","demographics","gender","0","0","0","0","0","0","Male","1","3155","0"
"75","060617","11:27:52","970170351","181963198","4.0.10.0","1","2","demographics","age","0","0","0","0","0","0","26","1","2857","0"
"76","060617","11:27:52","970170351","181963198","4.0.10.0","1","3","demographics","gender","0","0","0","0","0","0","Male","1","8034","0"
"77","060617","05:23:35","195003132","218137484","4.0.10.0","1","2","demographics","age","0","0","0","0","0","0","52","1","19270","0"
"78","060617","05:23:35","195003132","218137484","4.0.10.0","1","3","demographics","gender","0","0","0","0","0","0","Female","1","13899","0"
"79","060617","05:14:30","867979495","533795637","4.0.10.0","1","2","demographics","age","0","0","0","0","0","0","20","1","3481","0"
"80","060617","05:14:30","867979495","533795637","4.0.10.0","1","3","demographics","gender","0","0","0","0","0","0","male","1","2365","0"
"81","060617","05:12:51","867979495","533795637","4.0.10.0","1","2","demographics","age","0","0","0","0","0","0","20","1","3452","0"
"82","060617","05:12:51","867979495","533795637","4.0.10.0","1","3","demographics","gender","0","0","0","0","0","0","male","1","3186","0"
"83","060617","11:09:38","966437689","4303807","4.0.10.0","1","2","demographics","age","0","0","0","0","0","0","45","1","3968","0"
"84","060617","11:09:38","966437689","4303807","4.0.10.0","1","3","demographics","gender","0","0","0","0","0","0","male","1","5577","0"
"85","060617","11:03:56","349324091","303336140","4.0.10.0","1","2","demographics","age","0","0","0","0","0","0","37","1","7791","0"
"86","060617","11:03:56","349324091","303336140","4.0.10.0","1","3","demographics","gender","0","0","0","0","0","0","male","1","9233","0"
"87","060617","11:03:13","766861691","103555548","4.0.10.0","1","2","demographics","age","0","0","0","0","0","0","43","1","3727","0"
"88","060617","11:03:13","766861691","103555548","4.0.10.0","1","3","demographics","gender","0","0","0","0","0","0","female","1","6378","0"
"89","060617","06:02:04","149002101","577237976","4.0.10.0","1","2","demographics","age","0","0","0","0","0","0","35","1","3649","0"
"90","060617","06:02:04","149002101","577237976","4.0.10.0","1","3","demographics","gender","0","0","0","0","0","0","male","1","3837","0"
"91","060617","04:59:30","339879558","691942012","4.0.10.0","1","2","demographics","age","0","0","0","0","0","0","20","1","3623","0"
"92","060617","04:59:30","339879558","691942012","4.0.10.0","1","3","demographics","gender","0","0","0","0","0","0","Female","1","4085","0"
"93","060617","05:57:33","259411781","297576014","4.0.10.0","1","2","demographics","age","0","0","0","0","0","0","49","1","3455","0"
"94","060617","05:57:33","259411781","297576014","4.0.10.0","1","3","demographics","gender","0","0","0","0","0","0","Male","1","3368","0"
"95","060617","10:58:59","516266081","615871982","4.0.10.0","1","2","demographics","age","0","0","0","0","0","0","61","1","3881","0"
"96","060617","10:58:59","516266081","615871982","4.0.10.0","1","3","demographics","gender","0","0","0","0","0","0","Male","1","4290","0"
"97","060617","10:58:20","20637804","296526837","4.0.10.0","1","2","demographics","age","0","0","0","0","0","0","26","1","2603","0"
"98","060617","10:58:20","20637804","296526837","4.0.10.0","1","3","demographics","gender","0","0","0","0","0","0","female","1","3337","0"
"99","060617","10:55:56","982634051","547550043","4.0.10.0","1","2","demographics","age","0","0","0","0","0","0","45","1","3928","0"
"100","060617","10:55:56","982634051","547550043","4.0.10.0","1","3","demographics","gender","0","0","0","0","0","0","FEMALE","1","6101","0"
"101","060617","10:54:54","950962035","73915321","4.0.10.0","1","2","demographics","age","0","0","0","0","0","0","40","1","4348","0"
"102","060617","10:54:54","950962035","73915321","4.0.10.0","1","3","demographics","gender","0","0","0","0","0","0","female","1","3752","0"
"103","060617","10:54:31","730180218","524503518","4.0.10.0","1","2","demographics","age","0","0","0","0","0","0","62","1","4426","0"
"104","060617","10:54:31","730180218","524503518","4.0.10.0","1","3","demographics","gender","0","0","0","0","0","0","female","1","5328","0"
"105","060617","10:52:08","782326644","439671712","4.0.10.0","1","2","demographics","age","0","0","0","0","0","0","41","1","5325","0"
"106","060617","10:52:08","782326644","439671712","4.0.10.0","1","3","demographics","gender","0","0","0","0","0","0","male","1","3192","0"
"107","060617","10:51:50","825070680","482098987","4.0.10.0","1","2","demographics","age","0","0","0","0","0","0","18","1","2826","0"
"108","060617","10:51:50","825070680","482098987","4.0.10.0","1","3","demographics","gender","0","0","0","0","0","0","Female","1","2827","0"
"109","060617","10:48:22","740714848","715419738","4.0.10.0","1","2","demographics","age","0","0","0","0","0","0","39","1","2460","0"
"110","060617","10:48:22","740714848","715419738","4.0.10.0","1","3","demographics","gender","0","0","0","0","0","0","Female","1","3144","0"
"111","060617","10:49:57","844854509","453471987","4.0.10.0","1","2","demographics","age","0","0","0","0","0","0","22","1","5048","0"
"112","060617","10:49:57","844854509","453471987","4.0.10.0","1","3","demographics","gender","0","0","0","0","0","0","female","1","4513","0"
"113","060617","05:49:09","669684388","644389278","4.0.10.0","1","2","demographics","age","0","0","0","0","0","0","35","1","3024","0"
"114","060617","05:49:09","669684388","644389278","4.0.10.0","1","3","demographics","gender","0","0","0","0","0","0","male","1","4419","0"
"115","060617","10:46:32","468940001","825100912","4.0.10.0","1","2","demographics","age","0","0","0","0","0","0","39","1","2501","0"
"116","060617","10:46:32","468940001","825100912","4.0.10.0","1","3","demographics","gender","0","0","0","0","0","0","Female","1","4526","0"
"117","060617","10:49:07","923929844","801768472","4.0.10.0","1","2","demographics","age","0","0","0","0","0","0","19","1","3966","0"
"118","060617","10:49:07","923929844","801768472","4.0.10.0","1","3","demographics","gender","0","0","0","0","0","0","Female","1","4095","0"
"119","060617","10:45:33","443754063","405744876","4.0.10.0","1","2","demographics","age","0","0","0","0","0","0","47","1","4960","0"
"120","060617","10:45:33","443754063","405744876","4.0.10.0","1","3","demographics","gender","0","0","0","0","0","0","f","1","3305","0"
"121","060617","10:43:44","545263448","721042769","4.0.10.0","1","2","demographics","age","0","0","0","0","0","0","39","1","2888","0"
"122","060617","10:43:44","545263448","721042769","4.0.10.0","1","3","demographics","gender","0","0","0","0","0","0","female","1","3672","0"
"123","060617","10:42:51","945559497","221448543","4.0.10.0","1","2","demographics","age","0","0","0","0","0","0","48","1","3506","0"
"124","060617","10:42:51","945559497","221448543","4.0.10.0","1","3","demographics","gender","0","0","0","0","0","0","female","1","6109","0"
"125","060617","10:41:47","463287631","806734465","4.0.10.0","1","2","demographics","age","0","0","0","0","0","0","32","1","4864","0"
"126","060617","10:41:47","463287631","806734465","4.0.10.0","1","3","demographics","gender","0","0","0","0","0","0","male","1","4811","0"
"127","060617","10:41:52","39011045","647628510","4.0.10.0","1","2","demographics","age","0","0","0","0","0","0","26","1","3074","0"
"128","060617","10:41:52","39011045","647628510","4.0.10.0","1","3","demographics","gender","0","0","0","0","0","0","Male","1","2833","0"
"129","060617","10:41:49","995277614","118230901","4.0.10.0","1","2","demographics","age","0","0","0","0","0","0","42","1","2727","0"
"130","060617","10:41:49","995277614","118230901","4.0.10.0","1","3","demographics","gender","0","0","0","0","0","0","female","1","3530","0"
"131","060617","10:41:33","718727034","756891267","4.0.10.0","1","2","demographics","age","0","0","0","0","0","0","22","1","1929","0"
"132","060617","10:41:33","718727034","756891267","4.0.10.0","1","3","demographics","gender","0","0","0","0","0","0","male","1","3705","0"
"133","060617","10:40:45","779204269","143343957","4.0.10.0","1","2","demographics","age","0","0","0","0","0","0","22","1","3726","0"
"134","060617","10:40:45","779204269","143343957","4.0.10.0","1","3","demographics","gender","0","0","0","0","0","0","Male","1","3060","0"
"135","060617","10:39:34","115535084","861410275","4.0.10.0","1","2","demographics","age","0","0","0","0","0","0","22","1","2288","0"
"136","060617","10:39:34","115535084","861410275","4.0.10.0","1","3","demographics","gender","0","0","0","0","0","0","Female","1","5734","0"
"137","060617","10:39:13","872110877","377109103","4.0.10.0","1","2","demographics","age","0","0","0","0","0","0","44","1","3509","0"
"138","060617","10:39:13","872110877","377109103","4.0.10.0","1","3","demographics","gender","0","0","0","0","0","0","female","1","4783","0"
"139","060617","10:39:07","933500816","346368094","4.0.10.0","1","2","demographics","age","0","0","0","0","0","0","21","1","3296","0"
"140","060617","10:39:07","933500816","346368094","4.0.10.0","1","3","demographics","gender","0","0","0","0","0","0","male","1","3611","0"
"141","060617","10:38:13","958878938","211103851","4.0.10.0","1","2","demographics","age","0","0","0","0","0","0","23 ","1","3580","0"
"142","060617","10:38:13","958878938","211103851","4.0.10.0","1","3","demographics","gender","0","0","0","0","0","0","female","1","7061","0"
"143","060617","10:36:21","70742292","357814164","4.0.10.0","1","2","demographics","age","0","0","0","0","0","0","33","1","2503","0"
"144","060617","10:36:21","70742292","357814164","4.0.10.0","1","3","demographics","gender","0","0","0","0","0","0","female","1","3311","0"
"145","060617","10:33:32","740423094","304724198","4.0.10.0","1","2","demographics","age","0","0","0","0","0","0","42","1","3588","0"
"146","060617","10:33:32","740423094","304724198","4.0.10.0","1","3","demographics","gender","0","0","0","0","0","0","FEMALE","1","5209","0"
"147","060617","10:33:27","700810972","128152476","4.0.10.0","1","2","demographics","age","0","0","0","0","0","0","21","1","2985","0"
"148","060617","10:33:27","700810972","128152476","4.0.10.0","1","3","demographics","gender","0","0","0","0","0","0","Male","1","3968","0"
"149","060617","04:32:34","667573863","148635798","4.0.10.0","1","2","demographics","age","0","0","0","0","0","0","33","1","3711","0"
"150","060617","04:32:34","667573863","148635798","4.0.10.0","1","3","demographics","gender","0","0","0","0","0","0","Male ","1","3858","0"
"151","060617","05:32:28","427078455","763772299","4.0.10.0","1","2","demographics","age","0","0","0","0","0","0","47","1","2812","0"
"152","060617","05:32:28","427078455","763772299","4.0.10.0","1","3","demographics","gender","0","0","0","0","0","0","male","1","6702","0"
"153","060617","10:30:47","70742292","357814164","4.0.10.0","1","2","demographics","age","0","0","0","0","0","0","33","1","2799","0"
"154","060617","10:30:47","70742292","357814164","4.0.10.0","1","3","demographics","gender","0","0","0","0","0","0","female","1","3839","0"
"155","060617","10:27:49","608173435","356423676","4.0.10.0","1","2","demographics","age","0","0","0","0","0","0","37","1","3614","0"
"156","060617","10:27:49","608173435","356423676","4.0.10.0","1","3","demographics","gender","0","0","0","0","0","0","female","1","3180","0"
"157","060617","10:25:34","988920357","103258023","4.0.10.0","1","2","demographics","age","0","0","0","0","0","0","54","1","3195","0"
"158","060617","10:25:34","988920357","103258023","4.0.10.0","1","3","demographics","gender","0","0","0","0","0","0","female","1","5496","0"
"159","060617","10:25:34","988920357","103258023","4.0.10.0","1","2","demographics","age","0","0","0","0","0","0","54","1","3195","0"
"160","060617","10:25:34","988920357","103258023","4.0.10.0","1","3","demographics","gender","0","0","0","0","0","0","female","1","5496","0"
"161","060617","10:25:13","534107816","344090515","4.0.10.0","1","2","demographics","age","0","0","0","0","0","0","28","1","4256","0"
"162","060617","10:25:13","534107816","344090515","4.0.10.0","1","3","demographics","gender","0","0","0","0","0","0","Female","1","6542","0"
"163","060617","10:24:52","921277251","349513138","4.0.10.0","1","2","demographics","age","0","0","0","0","0","0","48","1","4513","0"
"164","060617","10:24:52","921277251","349513138","4.0.10.0","1","3","demographics","gender","0","0","0","0","0","0","male","1","5433","0"
"165","060617","10:24:01","988920357","103258023","4.0.10.0","1","2","demographics","age","0","0","0","0","0","0","54","1","3474","0"
"166","060617","10:24:01","988920357","103258023","4.0.10.0","1","3","demographics","gender","0","0","0","0","0","0","female","1","4346","0"
"167","060617","10:23:43","715518769","73354725","4.0.10.0","1","2","demographics","age","0","0","0","0","0","0","39","1","3207","0"
"168","060617","10:23:43","715518769","73354725","4.0.10.0","1","3","demographics","gender","0","0","0","0","0","0","male","1","4321","0"
"169","060617","10:22:27","503001163","984063085","4.0.10.0","1","2","demographics","age","0","0","0","0","0","0","38","1","2983","0"
"170","060617","10:22:27","503001163","984063085","4.0.10.0","1","3","demographics","gender","0","0","0","0","0","0","male","1","4333","0"
"171","060617","10:23:09","582517208","479940788","4.0.10.0","1","2","demographics","age","0","0","0","0","0","0","48","1","4425","0"
"172","060617","10:23:09","582517208","479940788","4.0.10.0","1","3","demographics","gender","0","0","0","0","0","0","female","1","5770","0"
"173","060617","10:20:42","884329032","694609859","4.0.10.0","1","2","demographics","age","0","0","0","0","0","0","40","1","2962","0"
"174","060617","10:20:42","884329032","694609859","4.0.10.0","1","3","demographics","gender","0","0","0","0","0","0","female","1","4659","0"
"175","060617","10:19:29","732018753","450168632","4.0.10.0","1","2","demographics","age","0","0","0","0","0","0","35","1","2127","0"
"176","060617","10:19:29","732018753","450168632","4.0.10.0","1","3","demographics","gender","0","0","0","0","0","0","Female","1","2157","0"
"177","060617","10:19:02","993873584","17306077","4.0.10.0","1","2","demographics","age","0","0","0","0","0","0","30","1","3641","0"
"178","060617","10:19:02","993873584","17306077","4.0.10.0","1","3","demographics","gender","0","0","0","0","0","0","male","1","5422","0"
"179","060617","10:18:58","732204915","630736384","4.0.10.0","1","2","demographics","age","0","0","0","0","0","0","37","1","4285","0"
"180","060617","10:18:58","732204915","630736384","4.0.10.0","1","3","demographics","gender","0","0","0","0","0","0","Male","1","3593","0"
"181","060617","10:16:05","681018569","579550038","4.0.10.0","1","2","demographics","age","0","0","0","0","0","0","59","1","5544","0"
"182","060617","10:16:05","681018569","579550038","4.0.10.0","1","3","demographics","gender","0","0","0","0","0","0","Male","1","5947","0"
"183","060617","05:16:32","880046414","91839261","4.0.10.0","1","2","demographics","age","0","0","0","0","0","0","23","1","2969","0"
"184","060617","05:16:32","880046414","91839261","4.0.10.0","1","3","demographics","gender","0","0","0","0","0","0","female","1","6228","0"
"185","060617","10:16:29","888431251","100224098","4.0.10.0","1","2","demographics","age","0","0","0","0","0","0","51","1","3254","0"
"186","060617","10:16:29","888431251","100224098","4.0.10.0","1","3","demographics","gender","0","0","0","0","0","0","Female","1","4662","0"
"187","060617","05:15:55","880046414","91839261","4.0.10.0","1","2","demographics","age","0","0","0","0","0","0","23","1","3825","0"
"188","060617","05:15:55","880046414","91839261","4.0.10.0","1","3","demographics","gender","0","0","0","0","0","0","female ","1","6284","0"
"189","060617","10:15:21","929755788","691309025","4.0.10.0","1","2","demographics","age","0","0","0","0","0","0","50","1","2495","0"
"190","060617","10:15:21","929755788","691309025","4.0.10.0","1","3","demographics","gender","0","0","0","0","0","0","female","1","4180","0"
"191","060617","10:14:00","341612241","236045252","4.0.10.0","1","2","demographics","age","0","0","0","0","0","0","27","1","5293","0"
"192","060617","10:14:00","341612241","236045252","4.0.10.0","1","3","demographics","gender","0","0","0","0","0","0","female","1","3464","0"
"193","060617","10:10:45","302598407","590564661","4.0.10.0","1","2","demographics","age","0","0","0","0","0","0","24","1","3139","0"
"194","060617","10:10:45","302598407","590564661","4.0.10.0","1","3","demographics","gender","0","0","0","0","0","0","Male","1","3553","0"
"195","060617","10:11:08","664473270","77340547","4.0.10.0","1","2","demographics","age","0","0","0","0","0","0","26","1","2639","0"
"196","060617","10:11:08","664473270","77340547","4.0.10.0","1","3","demographics","gender","0","0","0","0","0","0","female","1","3501","0"
"197","060617","10:10:06","236034860","30358160","4.0.10.0","1","2","demographics","age","0","0","0","0","0","0","29","1","7234","0"
"198","060617","10:10:06","236034860","30358160","4.0.10.0","1","3","demographics","gender","0","0","0","0","0","0","female","1","11321","0"
"199","060617","10:07:07","579739351","992606616","4.0.10.0","1","2","demographics","age","0","0","0","0","0","0","64","1","3045","0"
"200","060617","10:07:07","579739351","992606616","4.0.10.0","1","3","demographics","gender","0","0","0","0","0","0","female","1","6674","0"
"201","060617","10:06:01","269154761","725425384","4.0.10.0","1","2","demographics","age","0","0","0","0","0","0","24","1","2895","0"
"202","060617","10:06:01","269154761","725425384","4.0.10.0","1","3","demographics","gender","0","0","0","0","0","0","female","1","4226","0"
"203","060617","10:04:04","940165321","91153356","4.0.10.0","1","2","demographics","age","0","0","0","0","0","0","25","1","3130","0"
"204","060617","10:04:04","940165321","91153356","4.0.10.0","1","3","demographics","gender","0","0","0","0","0","0","Female","1","3514","0"
"205","060617","10:03:28","253658060","231017482","4.0.10.0","1","2","demographics","age","0","0","0","0","0","0","35","1","3926","0"
"206","060617","10:03:28","253658060","231017482","4.0.10.0","1","3","demographics","gender","0","0","0","0","0","0","male","1","4532","0"
"207","060617","02:03:15","93302710","376839115","4.0.10.0","1","2","demographics","age","0","0","0","0","0","0","26","1","3552","0"
"208","060617","02:03:15","93302710","376839115","4.0.10.0","1","3","demographics","gender","0","0","0","0","0","0","Female","1","4810","0"
"209","060617","10:03:00","507852706","546653795","4.0.10.0","1","2","demographics","age","0","0","0","0","0","0","56","1","3480","0"
"210","060617","10:03:00","507852706","546653795","4.0.10.0","1","3","demographics","gender","0","0","0","0","0","0","FEMALE","1","4166","0"
"211","060617","10:01:34","799231458","142678305","4.0.10.0","1","2","demographics","age","0","0","0","0","0","0","54","1","3632","0"
"212","060617","10:01:34","799231458","142678305","4.0.10.0","1","3","demographics","gender","0","0","0","0","0","0","male","1","3577","0"
"213","060617","10:00:02","178159797","48656517","4.0.10.0","1","2","demographics","age","0","0","0","0","0","0","47","1","4196","0"
"214","060617","10:00:02","178159797","48656517","4.0.10.0","1","3","demographics","gender","0","0","0","0","0","0","female","1","4962","0"
"215","060617","10:00:05","965211794","927839463","4.0.10.0","1","2","demographics","age","0","0","0","0","0","0","36","1","2744","0"
"216","060617","10:00:05","965211794","927839463","4.0.10.0","1","3","demographics","gender","0","0","0","0","0","0","female","1","4435","0"
"217","060617","09:59:38","521883548","749044991","4.0.10.0","1","2","demographics","age","0","0","0","0","0","0","36","1","4453","0"
"218","060617","09:59:38","521883548","749044991","4.0.10.0","1","3","demographics","gender","0","0","0","0","0","0","male","1","6911","0"
"219","060617","04:58:42","317367338","660516044","4.0.10.0","1","2","demographics","age","0","0","0","0","0","0","41","1","2990","0"
"220","060617","04:58:42","317367338","660516044","4.0.10.0","1","3","demographics","gender","0","0","0","0","0","0","male","1","16425","0"
"221","060617","09:58:45","101092421","505980923","4.0.10.0","1","2","demographics","age","0","0","0","0","0","0","32","1","2502","0"
"222","060617","09:58:45","101092421","505980923","4.0.10.0","1","3","demographics","gender","0","0","0","0","0","0","male","1","3933","0"
"223","060617","09:53:25","606368282","943062126","4.0.10.0","1","2","demographics","age","0","0","0","0","0","0","37","1","4261","0"
"224","060617","09:53:25","606368282","943062126","4.0.10.0","1","3","demographics","gender","0","0","0","0","0","0","female","1","6275","0"
"225","060617","09:55:39","799627474","311378690","4.0.10.0","1","2","demographics","age","0","0","0","0","0","0","49","1","5907","0"
"226","060617","09:55:39","799627474","311378690","4.0.10.0","1","3","demographics","gender","0","0","0","0","0","0","female","1","5715","0"
"227","060617","09:54:38","42104118","12710550","4.0.10.0","1","2","demographics","age","0","0","0","0","0","0","62","1","3593","0"
"228","060617","09:54:38","42104118","12710550","4.0.10.0","1","3","demographics","gender","0","0","0","0","0","0","female","1","5410","0"
"229","060617","09:53:05","205852565","458394225","4.0.10.0","1","2","demographics","age","0","0","0","0","0","0","30","1","7446","0"
"230","060617","09:53:05","205852565","458394225","4.0.10.0","1","3","demographics","gender","0","0","0","0","0","0","female","1","15753","0"
"231","060617","09:51:15","149952276","478667357","4.0.10.0","1","2","demographics","age","0","0","0","0","0","0","27","1","3241","0"
"232","060617","09:51:15","149952276","478667357","4.0.10.0","1","3","demographics","gender","0","0","0","0","0","0","female","1","3862","0"
"233","060617","09:50:51","744461542","767894022","4.0.10.0","1","2","demographics","age","0","0","0","0","0","0","30","1","2623","0"
"234","060617","09:50:51","744461542","767894022","4.0.10.0","1","3","demographics","gender","0","0","0","0","0","0","female","1","4342","0"
"235","060617","09:50:14","730316839","158552727","4.0.10.0","1","2","demographics","age","0","0","0","0","0","0","40","1","7079","0"
"236","060617","09:50:14","730316839","158552727","4.0.10.0","1","3","demographics","gender","0","0","0","0","0","0","MALE","1","9334","0"
"237","060617","09:48:55","69055618","481009868","4.0.10.0","1","2","demographics","age","0","0","0","0","0","0","39","1","5405","0"
"238","060617","09:48:55","69055618","481009868","4.0.10.0","1","3","demographics","gender","0","0","0","0","0","0","Female","1","7506","0"
"239","060617","09:48:27","182925634","53701849","4.0.10.0","1","2","demographics","age","0","0","0","0","0","0","46","1","3384","0"
"240","060617","09:48:27","182925634","53701849","4.0.10.0","1","3","demographics","gender","0","0","0","0","0","0","Male","1","3324","0"
"241","060617","09:47:54","74269778","479158279","4.0.10.0","1","2","demographics","age","0","0","0","0","0","0","27","1","2588","0"
"242","060617","09:47:54","74269778","479158279","4.0.10.0","1","3","demographics","gender","0","0","0","0","0","0","female","1","3227","0"
"243","060617","09:48:04","499050791","95848574","4.0.10.0","1","2","demographics","age","0","0","0","0","0","0","40","1","5062","0"
"244","060617","09:48:04","499050791","95848574","4.0.10.0","1","3","demographics","gender","0","0","0","0","0","0","male","1","3125","0"
"245","060617","09:48:02","403916526","915667729","4.0.10.0","1","2","demographics","age","0","0","0","0","0","0","21","1","2423","0"
"246","060617","09:48:02","403916526","915667729","4.0.10.0","1","3","demographics","gender","0","0","0","0","0","0","Male","1","2735","0"
"247","060617","09:47:37","492877592","141607039","4.0.10.0","1","2","demographics","age","0","0","0","0","0","0","62","1","4502","0"
"248","060617","09:47:37","492877592","141607039","4.0.10.0","1","3","demographics","gender","0","0","0","0","0","0","female","1","6202","0"
"249","060617","09:44:19","689885571","514898151","4.0.10.0","1","2","demographics","age","0","0","0","0","0","0","23","1","3335","0"
"250","060617","09:44:19","689885571","514898151","4.0.10.0","1","3","demographics","gender","0","0","0","0","0","0","Male","1","4088","0"
"251","060617","04:43:26","295149752","249459928","4.0.10.0","1","2","demographics","age","0","0","0","0","0","0","46","1","3324","0"
"252","060617","04:43:26","295149752","249459928","4.0.10.0","1","3","demographics","gender","0","0","0","0","0","0","female","1","5368","0"
"253","060617","09:40:35","971846141","384713419","4.0.10.0","1","2","demographics","age","0","0","0","0","0","0","45","1","3595","0"
"254","060617","09:40:35","971846141","384713419","4.0.10.0","1","3","demographics","gender","0","0","0","0","0","0","female","1","5812","0"
"255","060617","09:41:24","254009105","300788957","4.0.10.0","1","2","demographics","age","0","0","0","0","0","0","61","1","5716","0"
"256","060617","09:41:24","254009105","300788957","4.0.10.0","1","3","demographics","gender","0","0","0","0","0","0","female","1","6829","0"
"257","060617","09:38:46","837218139","173911997","4.0.10.0","1","2","demographics","age","0","0","0","0","0","0","37","1","4006","0"
"258","060617","09:38:46","837218139","173911997","4.0.10.0","1","3","demographics","gender","0","0","0","0","0","0","female","1","5619","0"
"259","060617","16:41:09","814602496","531839360","4.0.10.0","1","2","demographics","age","0","0","0","0","0","0","18","1","3081","0"
"260","060617","16:41:09","814602496","531839360","4.0.10.0","1","3","demographics","gender","0","0","0","0","0","0","Male","1","3692","0"
"261","060617","09:39:45","970076009","382048904","4.0.10.0","1","2","demographics","age","0","0","0","0","0","0","40","1","3626","0"
"262","060617","09:39:45","970076009","382048904","4.0.10.0","1","3","demographics","gender","0","0","0","0","0","0","male","1","3343","0"
"263","060617","09:43:15","873042520","911206753","4.0.10.0","1","2","demographics","age","0","0","0","0","0","0","38","1","4029","0"
"264","060617","09:43:15","873042520","911206753","4.0.10.0","1","3","demographics","gender","0","0","0","0","0","0","female","1","4359","0"
"265","060617","09:36:58","905497997","562843065","4.0.10.0","1","2","demographics","age","0","0","0","0","0","0","49","1","3677","0"
"266","060617","09:36:58","905497997","562843065","4.0.10.0","1","3","demographics","gender","0","0","0","0","0","0","male","1","5892","0"
"267","060617","09:37:03","254009105","300788957","4.0.10.0","1","2","demographics","age","0","0","0","0","0","0","61","1","5247","0"
"268","060617","09:37:03","254009105","300788957","4.0.10.0","1","3","demographics","gender","0","0","0","0","0","0","female","1","6872","0"
"269","060617","09:35:59","768218489","173107003","4.0.10.0","1","2","demographics","age","0","0","0","0","0","0","24","1","3234","0"
"270","060617","09:35:59","768218489","173107003","4.0.10.0","1","3","demographics","gender","0","0","0","0","0","0","m","1","4467","0"
"271","060617","01:35:16","638376165","990438619","4.0.10.0","1","2","demographics","age","0","0","0","0","0","0","29","1","4562","0"
"272","060617","01:35:16","638376165","990438619","4.0.10.0","1","3","demographics","gender","0","0","0","0","0","0","Male","1","3731","0"
"273","060617","09:34:25","109117485","465278397","4.0.10.0","1","2","demographics","age","0","0","0","0","0","0","39","1","2602","0"
"274","060617","09:34:25","109117485","465278397","4.0.10.0","1","3","demographics","gender","0","0","0","0","0","0","female","1","4263","0"
"275","060617","01:32:43","533813418","504419850","4.0.10.0","1","2","demographics","age","0","0","0","0","0","0","38","1","5775","0"
"276","060617","01:32:43","533813418","504419850","4.0.10.0","1","3","demographics","gender","0","0","0","0","0","0","female","1","6289","0"
"277","060617","09:32:27","562806321","533412753","4.0.10.0","1","2","demographics","age","0","0","0","0","0","0","37","1","4012","0"
"278","060617","09:32:27","562806321","533412753","4.0.10.0","1","3","demographics","gender","0","0","0","0","0","0","F","1","3591","0"
"279","060617","09:31:03","436843982","182439691","4.0.10.0","1","2","demographics","age","0","0","0","0","0","0","41","1","2865","0"
"280","060617","09:31:03","436843982","182439691","4.0.10.0","1","3","demographics","gender","0","0","0","0","0","0","Female","1","3809","0"
"281","060617","09:29:57","207215600","543909444","4.0.10.0","1","2","demographics","age","0","0","0","0","0","0","56","1","3528","0"
"282","060617","09:29:57","207215600","543909444","4.0.10.0","1","3","demographics","gender","0","0","0","0","0","0","female","1","6402","0"
"283","060617","09:30:02","776465635","569894552","4.0.10.0","1","2","demographics","age","0","0","0","0","0","0","37","1","3725","0"
"284","060617","09:30:02","776465635","569894552","4.0.10.0","1","3","demographics","gender","0","0","0","0","0","0","Female","1","4326","0"
"285","060617","09:27:54","870917398","77386013","4.0.10.0","1","2","demographics","age","0","0","0","0","0","0","34","1","4853","0"
"286","060617","09:27:54","870917398","77386013","4.0.10.0","1","3","demographics","gender","0","0","0","0","0","0","FEMALE","1","6126","0"
"287","060617","09:27:15","862820805","886253285","4.0.10.0","1","2","demographics","age","0","0","0","0","0","0","50","1","3116","0"
"288","060617","09:27:15","862820805","886253285","4.0.10.0","1","3","demographics","gender","0","0","0","0","0","0","Female","1","4493","0"
"289","060617","09:24:35","935440587","10534696","4.0.10.0","1","2","demographics","age","0","0","0","0","0","0","37","1","3274","0"
"290","060617","09:24:35","935440587","10534696","4.0.10.0","1","3","demographics","gender","0","0","0","0","0","0","Female","1","5089","0"
"291","060617","09:25:54","194758535","943008763","4.0.10.0","1","2","demographics","age","0","0","0","0","0","0","27","1","1940","0"
"292","060617","09:25:54","194758535","943008763","4.0.10.0","1","3","demographics","gender","0","0","0","0","0","0","Female","1","3168","0"
"293","060617","09:25:51","360810835","407590688","4.0.10.0","1","2","demographics","age","0","0","0","0","0","0","36","1","2708","0"
"294","060617","09:25:51","360810835","407590688","4.0.10.0","1","3","demographics","gender","0","0","0","0","0","0","male","1","4104","0"
"295","060617","09:25:11","172656507","591363746","4.0.10.0","1","2","demographics","age","0","0","0","0","0","0","28","1","4139","0"
"296","060617","09:25:11","172656507","591363746","4.0.10.0","1","3","demographics","gender","0","0","0","0","0","0","female","1","5667","0"
"297","060617","09:24:37","496603659","473963080","4.0.10.0","1","2","demographics","age","0","0","0","0","0","0","40","1","3471","0"
"298","060617","09:24:37","496603659","473963080","4.0.10.0","1","3","demographics","gender","0","0","0","0","0","0","Female","1","4776","0"
"299","060617","04:22:55","597382590","282762406","4.0.10.0","1","2","demographics","age","0","0","0","0","0","0","55","1","5234","0"
"300","060617","04:22:55","597382590","282762406","4.0.10.0","1","3","demographics","gender","0","0","0","0","0","0","male","1","5497","0"
"301","060617","09:20:21","587566676","175491312","4.0.10.0","1","2","demographics","age","0","0","0","0","0","0","37","1","3550","0"
"302","060617","09:20:21","587566676","175491312","4.0.10.0","1","3","demographics","gender","0","0","0","0","0","0","male","1","5088","0"
"303","060617","03:21:23","595957199","320860067","4.0.10.0","1","2","demographics","age","0","0","0","0","0","0","58","1","4794","0"
"304","060617","03:21:23","595957199","320860067","4.0.10.0","1","3","demographics","gender","0","0","0","0","0","0","Female","1","6950","0"
"305","060617","09:21:14","962039185","991330272","4.0.10.0","1","2","demographics","age","0","0","0","0","0","0","39","1","3069","0"
"306","060617","09:21:14","962039185","991330272","4.0.10.0","1","3","demographics","gender","0","0","0","0","0","0","Female","1","5267","0"
"307","060617","09:23:39","284506663","484222275","4.0.10.0","1","2","demographics","age","0","0","0","0","0","0","44","1","3855","0"
"308","060617","09:23:39","284506663","484222275","4.0.10.0","1","3","demographics","gender","0","0","0","0","0","0","female","1","10903","0"
"309","060617","09:20:31","492653016","897821012","4.0.10.0","1","2","demographics","age","0","0","0","0","0","0","47","1","4489","0"
"310","060617","09:20:31","492653016","897821012","4.0.10.0","1","3","demographics","gender","0","0","0","0","0","0","female","1","5458","0"
"311","060617","09:18:03","314620693","956597138","4.0.10.0","1","2","demographics","age","0","0","0","0","0","0","35","1","3066","0"
"312","060617","09:18:03","314620693","956597138","4.0.10.0","1","3","demographics","gender","0","0","0","0","0","0","male","1","6813","0"
"313","060617","09:16:17","843417125","890476473","4.0.10.0","1","2","demographics","age","0","0","0","0","0","0","38","1","4338","0"
"314","060617","09:16:17","843417125","890476473","4.0.10.0","1","3","demographics","gender","0","0","0","0","0","0","male","1","6467","0"
"315","060617","09:14:42","340372668","393588750","4.0.10.0","1","2","demographics","age","0","0","0","0","0","0","38","1","4530","0"
"316","060617","09:14:42","340372668","393588750","4.0.10.0","1","3","demographics","gender","0","0","0","0","0","0","male","1","5584","0"
"317","060617","09:14:09","968665452","305359309","4.0.10.0","1","2","demographics","age","0","0","0","0","0","0","26","1","3244","0"
"318","060617","09:14:09","968665452","305359309","4.0.10.0","1","3","demographics","gender","0","0","0","0","0","0","Female","1","4640","0"
"319","060617","09:14:37","792918901","846451743","4.0.10.0","1","2","demographics","age","0","0","0","0","0","0","35","1","5672","0"
"320","060617","09:14:37","792918901","846451743","4.0.10.0","1","3","demographics","gender","0","0","0","0","0","0","female","1","6095","0"
"321","060617","09:13:21","792918901","846451743","4.0.10.0","1","2","demographics","age","0","0","0","0","0","0","35","1","10128","0"
"322","060617","09:13:21","792918901","846451743","4.0.10.0","1","3","demographics","gender","0","0","0","0","0","0","female","1","7086","0"
"323","060617","09:12:50","961775624","173568471","4.0.10.0","1","2","demographics","age","0","0","0","0","0","0","30","1","3124","0"
"324","060617","09:12:50","961775624","173568471","4.0.10.0","1","3","demographics","gender","0","0","0","0","0","0","Male","1","4903","0"
"325","060617","09:12:28","536685541","337761830","4.0.10.0","1","2","demographics","age","0","0","0","0","0","0","34","1","2910","0"
"326","060617","09:12:28","536685541","337761830","4.0.10.0","1","3","demographics","gender","0","0","0","0","0","0","male","1","3255","0"
"327","060617","09:11:07","254753217","24285217","4.0.10.0","1","2","demographics","age","0","0","0","0","0","0","48","1","3257","0"
"328","060617","09:11:07","254753217","24285217","4.0.10.0","1","3","demographics","gender","0","0","0","0","0","0","Male","1","3601","0"
"329","060617","09:07:43","211613256","540328337","4.0.10.0","1","2","demographics","age","0","0","0","0","0","0","31","1","3207","0"
"330","060617","09:07:43","211613256","540328337","4.0.10.0","1","3","demographics","gender","0","0","0","0","0","0","Female","1","5722","0"
"331","060617","09:10:35","67588933","343477966","4.0.10.0","1","2","demographics","age","0","0","0","0","0","0","35","1","4361","0"
"332","060617","09:10:35","67588933","343477966","4.0.10.0","1","3","demographics","gender","0","0","0","0","0","0","Female","1","4973","0"
"333","060617","09:09:47","1075798","100681699","4.0.10.0","1","2","demographics","age","0","0","0","0","0","0","31","1","3038","0"
"334","060617","09:09:47","1075798","100681699","4.0.10.0","1","3","demographics","gender","0","0","0","0","0","0","Female","1","4827","0"
"335","060617","04:07:44","205419925","694460612","4.0.10.0","1","2","demographics","age","0","0","0","0","0","0","53","1","3984","0"
"336","060617","04:07:44","205419925","694460612","4.0.10.0","1","3","demographics","gender","0","0","0","0","0","0","female","1","5576","0"
"337","060617","04:07:35","577742812","997363066","4.0.10.0","1","2","demographics","age","0","0","0","0","0","0","19","1","4939","0"
"338","060617","04:07:35","577742812","997363066","4.0.10.0","1","3","demographics","gender","0","0","0","0","0","0","Male","1","4513","0"
"339","060617","09:06:56","886136246","543481314","4.0.10.0","1","2","demographics","age","0","0","0","0","0","0","42","1","8865","0"
"340","060617","09:06:56","886136246","543481314","4.0.10.0","1","3","demographics","gender","0","0","0","0","0","0","female","1","8911","0"
"341","060617","09:06:09","16844351","522140692","4.0.10.0","1","2","demographics","age","0","0","0","0","0","0","25","1","3945","0"
"342","060617","09:06:09","16844351","522140692","4.0.10.0","1","3","demographics","gender","0","0","0","0","0","0","Fema","1","3578","0"
"343","060617","09:05:28","513816327","613422227","4.0.10.0","1","2","demographics","age","0","0","0","0","0","0","40","1","2462","0"
"344","060617","09:05:28","513816327","613422227","4.0.10.0","1","3","demographics","gender","0","0","0","0","0","0","Male","1","3622","0"
"345","060617","09:04:58","486477631","914713505","4.0.10.0","1","2","demographics","age","0","0","0","0","0","0","42","1","3405","0"
"346","060617","09:04:58","486477631","914713505","4.0.10.0","1","3","demographics","gender","0","0","0","0","0","0","female","1","5468","0"
"347","060617","09:04:48","562662623","220007690","4.0.10.0","1","2","demographics","age","0","0","0","0","0","0","48","1","4492","0"
"348","060617","09:04:48","562662623","220007690","4.0.10.0","1","3","demographics","gender","0","0","0","0","0","0","female","1","5478","0"
"349","060617","09:04:16","539022610","662274011","4.0.10.0","1","2","demographics","age","0","0","0","0","0","0","37","1","8655","0"
"350","060617","09:04:16","539022610","662274011","4.0.10.0","1","3","demographics","gender","0","0","0","0","0","0","Male","1","6564","0"
"351","060617","09:04:05","214499762","551193606","4.0.10.0","1","2","demographics","age","0","0","0","0","0","0","47","1","5032","0"
"352","060617","09:04:05","214499762","551193606","4.0.10.0","1","3","demographics","gender","0","0","0","0","0","0","Male","1","4316","0"
"353","060617","08:03:27","807194018","235429905","4.0.10.0","1","2","demographics","age","0","0","0","0","0","0","31","1","3985","0"
"354","060617","08:03:27","807194018","235429905","4.0.10.0","1","3","demographics","gender","0","0","0","0","0","0","female","1","3766","0"
"355","060617","09:03:22","875222996","303458883","4.0.10.0","1","2","demographics","age","0","0","0","0","0","0","42","1","3122","0"
"356","060617","09:03:22","875222996","303458883","4.0.10.0","1","3","demographics","gender","0","0","0","0","0","0","Male","1","2891","0"
"357","060617","16:01:06","603769388","551028447","4.0.10.0","1","2","demographics","age","0","0","0","0","0","0","22","1","3126","0"
"358","060617","16:01:06","603769388","551028447","4.0.10.0","1","3","demographics","gender","0","0","0","0","0","0","Male ","1","5507","0"
"359","060617","08:59:28","41279974","71148682","4.0.10.0","1","2","demographics","age","0","0","0","0","0","0","64","1","3270","0"
"360","060617","08:59:28","41279974","71148682","4.0.10.0","1","3","demographics","gender","0","0","0","0","0","0","Male","1","3816","0"
"361","060617","08:58:20","330767501","360952971","4.0.10.0","1","2","demographics","age","0","0","0","0","0","0","23","1","1907","0"
"362","060617","08:58:20","330767501","360952971","4.0.10.0","1","3","demographics","gender","0","0","0","0","0","0","male","1","2522","0"
"363","060617","08:56:47","902825612","933011081","4.0.10.0","1","2","demographics","age","0","0","0","0","0","0","50","1","5693","0"
"364","060617","08:56:47","902825612","933011081","4.0.10.0","1","3","demographics","gender","0","0","0","0","0","0","Male","1","6594","0"
"365","060617","08:55:53","205046196","327999469","4.0.10.0","1","2","demographics","age","0","0","0","0","0","0","49","1","2841","0"
"366","060617","08:55:53","205046196","327999469","4.0.10.0","1","3","demographics","gender","0","0","0","0","0","0","Male","1","3717","0"
"367","060617","08:55:41","879320706","208035800","4.0.10.0","1","2","demographics","age","0","0","0","0","0","0","28","1","2946","0"
"368","060617","08:55:41","879320706","208035800","4.0.10.0","1","3","demographics","gender","0","0","0","0","0","0","Male","1","3831","0"
"369","060617","08:55:00","95074400","523310274","4.0.10.0","1","2","demographics","age","0","0","0","0","0","0","35","1","3337","0"
"370","060617","08:55:00","95074400","523310274","4.0.10.0","1","3","demographics","gender","0","0","0","0","0","0","Male","1","3770","0"
"371","060617","08:54:46","692662861","579117109","4.0.10.0","1","2","demographics","age","0","0","0","0","0","0","31","1","1868","0"
"372","060617","08:54:46","692662861","579117109","4.0.10.0","1","3","demographics","gender","0","0","0","0","0","0","female","1","2735","0"
"373","060617","08:55:04","947536946","123316280","4.0.10.0","1","2","demographics","age","0","0","0","0","0","0","36","1","2059","0"
"374","060617","08:55:04","947536946","123316280","4.0.10.0","1","3","demographics","gender","0","0","0","0","0","0","Male","1","2871","0"
"375","060617","08:53:58","185330006","903479872","4.0.10.0","1","2","demographics","age","0","0","0","0","0","0","29","1","2789","0"
"376","060617","08:53:58","185330006","903479872","4.0.10.0","1","3","demographics","gender","0","0","0","0","0","0","Female","1","4483","0"
"377","060617","08:53:31","692662861","579117109","4.0.10.0","1","2","demographics","age","0","0","0","0","0","0","31","1","4138","0"
"378","060617","08:53:31","692662861","579117109","4.0.10.0","1","3","demographics","gender","0","0","0","0","0","0","female","1","3818","0"
"379","060617","08:53:03","401186925","729902005","4.0.10.0","1","2","demographics","age","0","0","0","0","0","0","59","1","5142","0"
"380","060617","08:53:03","401186925","729902005","4.0.10.0","1","3","demographics","gender","0","0","0","0","0","0","male","1","6088","0"
"381","060617","08:52:11","768587984","21129657","4.0.10.0","1","2","demographics","age","0","0","0","0","0","0","39","1","2552","0"
"382","060617","08:52:11","768587984","21129657","4.0.10.0","1","3","demographics","gender","0","0","0","0","0","0","Male","1","3407","0"
"383","060617","08:47:47","975648704","897527546","4.0.10.0","1","2","demographics","age","0","0","0","0","0","0","29","1","3812","0"
"384","060617","08:47:47","975648704","897527546","4.0.10.0","1","3","demographics","gender","0","0","0","0","0","0","Female","1","3740","0"
"385","060617","08:45:45","178609067","431150727","4.0.10.0","1","2","demographics","age","0","0","0","0","0","0","30","1","2890","0"
"386","060617","08:45:45","178609067","431150727","4.0.10.0","1","3","demographics","gender","0","0","0","0","0","0","male","1","3327","0"
"387","060617","08:45:18","413980760","55957218","4.0.10.0","1","2","demographics","age","0","0","0","0","0","0","45","1","2945","0"
"388","060617","08:45:18","413980760","55957218","4.0.10.0","1","3","demographics","gender","0","0","0","0","0","0","male","1","8482","0"
"389","060617","08:44:49","824179707","746058549","4.0.10.0","1","2","demographics","age","0","0","0","0","0","0","32","1","2096","0"
"390","060617","08:44:49","824179707","746058549","4.0.10.0","1","3","demographics","gender","0","0","0","0","0","0","female","1","3490","0"
"391","060617","08:43:27","707260068","585098696","4.0.10.0","1","2","demographics","age","0","0","0","0","0","0","35","1","3588","0"
"392","060617","08:43:27","707260068","585098696","4.0.10.0","1","3","demographics","gender","0","0","0","0","0","0","male","1","3944","0"
"393","060617","08:43:10","773817041","346373068","4.0.10.0","1","2","demographics","age","0","0","0","0","0","0","45","1","2817","0"
"394","060617","08:43:10","773817041","346373068","4.0.10.0","1","3","demographics","gender","0","0","0","0","0","0","female","1","4228","0"
"395","060617","08:43:03","447251757","727239248","4.0.10.0","1","2","demographics","age","0","0","0","0","0","0","30","1","4752","0"
"396","060617","08:43:03","447251757","727239248","4.0.10.0","1","3","demographics","gender","0","0","0","0","0","0","female","1","4603","0"
"397","060617","08:42:49","657692535","327114823","4.0.10.0","1","2","demographics","age","0","0","0","0","0","0","54","1","4278","0"
"398","060617","08:42:49","657692535","327114823","4.0.10.0","1","3","demographics","gender","0","0","0","0","0","0","female","1","8161","0"
"399","060617","08:40:58","872282672","825996593","4.0.10.0","1","2","demographics","age","0","0","0","0","0","0","44","1","4182","0"
"400","060617","08:40:58","872282672","825996593","4.0.10.0","1","3","demographics","gender","0","0","0","0","0","0","female","1","7586","0"
"401","060617","08:41:10","920983572","264430419","4.0.10.0","1","2","demographics","age","0","0","0","0","0","0","33","1","3376","0"
"402","060617","08:41:10","920983572","264430419","4.0.10.0","1","3","demographics","gender","0","0","0","0","0","0","33","1","5856","0"
"403","060617","08:52:50","36103768","684833203","4.0.10.0","1","2","demographics","age","0","0","0","0","0","0","35","1","3234","0"
"404","060617","08:52:50","36103768","684833203","4.0.10.0","1","3","demographics","gender","0","0","0","0","0","0","female","1","5127","0"
"405","060617","08:39:58","729396747","615552867","4.0.10.0","1","2","demographics","age","0","0","0","0","0","0","48","1","3985","0"
"406","060617","08:39:58","729396747","615552867","4.0.10.0","1","3","demographics","gender","0","0","0","0","0","0","Female","1","8221","0"
"407","060617","08:40:04","536994597","102208716","4.0.10.0","1","2","demographics","age","0","0","0","0","0","0","33","1","2406","0"
"408","060617","08:40:04","536994597","102208716","4.0.10.0","1","3","demographics","gender","0","0","0","0","0","0","Female","1","3229","0"
"409","060617","08:38:08","90332454","671504088","4.0.10.0","1","2","demographics","age","0","0","0","0","0","0","36","1","2542","0"
"410","060617","08:38:08","90332454","671504088","4.0.10.0","1","3","demographics","gender","0","0","0","0","0","0","Male","1","2910","0"
"411","060617","08:38:08","192996457","468885490","4.0.10.0","1","2","demographics","age","0","0","0","0","0","0","20","1","2953","0"
"412","060617","08:38:08","192996457","468885490","4.0.10.0","1","3","demographics","gender","0","0","0","0","0","0","Male","1","4211","0"
"413","060617","08:34:44","531081127","477427171","4.0.10.0","1","2","demographics","age","0","0","0","0","0","0","29","1","3056","0"
"414","060617","08:34:44","531081127","477427171","4.0.10.0","1","3","demographics","gender","0","0","0","0","0","0","non-binary","1","12746","0"
"415","060617","08:33:26","554293524","66044739","4.0.10.0","1","2","demographics","age","0","0","0","0","0","0","26","1","2617","0"
"416","060617","08:33:26","554293524","66044739","4.0.10.0","1","3","demographics","gender","0","0","0","0","0","0","female","1","6262","0"
"417","060617","08:33:16","606313805","858855465","4.0.10.0","1","2","demographics","age","0","0","0","0","0","0","30","1","2412","0"
"418","060617","08:33:16","606313805","858855465","4.0.10.0","1","3","demographics","gender","0","0","0","0","0","0","male","1","6808","0"
"419","060617","08:31:17","200097789","246877642","4.0.10.0","1","2","demographics","age","0","0","0","0","0","0","37","1","3676","0"
"420","060617","08:31:17","200097789","246877642","4.0.10.0","1","3","demographics","gender","0","0","0","0","0","0","Female","1","3501","0"
"421","060617","08:29:53","329105390","910277024","4.0.10.0","1","2","demographics","age","0","0","0","0","0","0","35","1","3674","0"
"422","060617","08:29:53","329105390","910277024","4.0.10.0","1","3","demographics","gender","0","0","0","0","0","0","Female","1","7121","0"
"423","060617","08:28:59","631179803","288524870","4.0.10.0","1","2","demographics","age","0","0","0","0","0","0","59","1","4211","0"
"424","060617","08:28:59","631179803","288524870","4.0.10.0","1","3","demographics","gender","0","0","0","0","0","0","Female","1","6490","0"
"425","060617","08:29:10","248666624","688979720","4.0.10.0","1","2","demographics","age","0","0","0","0","0","0","27","1","2734","0"
"426","060617","08:29:10","248666624","688979720","4.0.10.0","1","3","demographics","gender","0","0","0","0","0","0","female","1","3882","0"
"427","060617","17:28:42","56186884","102966737","4.0.10.0","1","2","demographics","age","0","0","0","0","0","0","27","1","1575","0"
"428","060617","17:28:42","56186884","102966737","4.0.10.0","1","3","demographics","gender","0","0","0","0","0","0","male","1","2129","0"
"429","060617","08:26:02","110537488","439252569","4.0.10.0","1","2","demographics","age","0","0","0","0","0","0","38","1","5754","0"
"430","060617","08:26:02","110537488","439252569","4.0.10.0","1","3","demographics","gender","0","0","0","0","0","0","female","1","3925","0"
"431","060617","08:25:03","143977985","114584417","4.0.10.0","1","2","demographics","age","0","0","0","0","0","0","57","1","5605","0"
"432","060617","08:25:03","143977985","114584417","4.0.10.0","1","3","demographics","gender","0","0","0","0","0","0","female","1","6486","0"
"433","060617","08:24:06","632334705","670498938","4.0.10.0","1","2","demographics","age","0","0","0","0","0","0","22","1","3983","0"
"434","060617","08:24:06","632334705","670498938","4.0.10.0","1","3","demographics","gender","0","0","0","0","0","0","Male","1","3773","0"
"435","060617","08:23:30","720053047","621239048","4.0.10.0","1","2","demographics","age","0","0","0","0","0","0","29","1","3089","0"
"436","060617","08:23:30","720053047","621239048","4.0.10.0","1","3","demographics","gender","0","0","0","0","0","0","female","1","5101","0"
"437","060617","08:22:35","181602525","434144185","4.0.10.0","1","2","demographics","age","0","0","0","0","0","0","59","1","5156","0"
"438","060617","08:22:35","181602525","434144185","4.0.10.0","1","3","demographics","gender","0","0","0","0","0","0","female","1","4881","0"
"439","060617","08:21:42","212905917","465447577","4.0.10.0","1","2","demographics","age","0","0","0","0","0","0","36","1","4218","0"
"440","060617","08:21:42","212905917","465447577","4.0.10.0","1","3","demographics","gender","0","0","0","0","0","0","female","1","4168","0"
"441","060617","08:21:50","666005453","560438464","4.0.10.0","1","2","demographics","age","0","0","0","0","0","0","35","1","6373","0"
"442","060617","08:21:50","666005453","560438464","4.0.10.0","1","3","demographics","gender","0","0","0","0","0","0","female","1","7570","0"
"443","060617","02:19:10","164806270","162858532","4.0.10.0","1","2","demographics","age","0","0","0","0","0","0","34","1","5397","0"
"444","060617","02:19:10","164806270","162858532","4.0.10.0","1","3","demographics","gender","0","0","0","0","0","0","male","1","3539","0"
"445","060617","08:20:50","639729371","144727597","4.0.10.0","1","2","demographics","age","0","0","0","0","0","0","36","1","3386","0"
"446","060617","08:20:50","639729371","144727597","4.0.10.0","1","3","demographics","gender","0","0","0","0","0","0","male","1","3384","0"
"447","060617","08:20:17","58239308","563237522","4.0.10.0","1","2","demographics","age","0","0","0","0","0","0","36","1","4982","0"
"448","060617","08:20:17","58239308","563237522","4.0.10.0","1","3","demographics","gender","0","0","0","0","0","0","female","1","4038","0"
"449","060617","08:19:04","58239308","563237522","4.0.10.0","1","2","demographics","age","0","0","0","0","0","0","36","1","15554","0"
"450","060617","08:19:04","58239308","563237522","4.0.10.0","1","3","demographics","gender","0","0","0","0","0","0","female","1","6767","0"
"451","060617","08:19:42","950289215","202830888","4.0.10.0","1","2","demographics","age","0","0","0","0","0","0","33","1","5691","0"
"452","060617","08:19:42","950289215","202830888","4.0.10.0","1","3","demographics","gender","0","0","0","0","0","0","Male","1","5193","0"
"453","060617","08:19:27","989040292","783363592","4.0.10.0","1","2","demographics","age","0","0","0","0","0","0","38","1","2671","0"
"454","060617","08:19:27","989040292","783363592","4.0.10.0","1","3","demographics","gender","0","0","0","0","0","0","female","1","6854","0"
"455","060617","08:17:36","797582661","691717545","4.0.10.0","1","2","demographics","age","0","0","0","0","0","0","34","1","4253","0"
"456","060617","08:17:36","797582661","691717545","4.0.10.0","1","3","demographics","gender","0","0","0","0","0","0","male","1","4735","0"
"457","060617","08:17:08","312249889","981672165","4.0.10.0","1","2","demographics","age","0","0","0","0","0","0","28","1","3937","0"
"458","060617","08:17:08","312249889","981672165","4.0.10.0","1","3","demographics","gender","0","0","0","0","0","0","female","1","6022","0"
"459","060617","08:16:54","166482580","835904856","4.0.10.0","1","2","demographics","age","0","0","0","0","0","0","38","1","5317","0"
"460","060617","08:16:54","166482580","835904856","4.0.10.0","1","3","demographics","gender","0","0","0","0","0","0","male","1","3273","0"
"461","060617","08:16:23","333232173","636567037","4.0.10.0","1","2","demographics","age","0","0","0","0","0","0","41","1","5758","0"
"462","060617","08:16:23","333232173","636567037","4.0.10.0","1","3","demographics","gender","0","0","0","0","0","0","female","1","9716","0"
"463","060617","03:15:06","9973494","935950781","4.0.10.0","1","2","demographics","age","0","0","0","0","0","0","22","1","2906","0"
"464","060617","03:15:06","9973494","935950781","4.0.10.0","1","3","demographics","gender","0","0","0","0","0","0","Female","1","3497","0"
"465","060617","08:15:02","519404231","413837242","4.0.10.0","1","2","demographics","age","0","0","0","0","0","0","60","1","3675","0"
"466","060617","08:15:02","519404231","413837242","4.0.10.0","1","3","demographics","gender","0","0","0","0","0","0","female","1","6594","0"
"467","060617","17:15:15","700317207","674109081","4.0.10.0","1","2","demographics","age","0","0","0","0","0","0","27","1","2287","0"
"468","060617","17:15:15","700317207","674109081","4.0.10.0","1","3","demographics","gender","0","0","0","0","0","0","male","1","3422","0"
"469","060617","08:12:01","387481220","281914232","4.0.10.0","1","2","demographics","age","0","0","0","0","0","0","21","1","2952","0"
"470","060617","08:12:01","387481220","281914232","4.0.10.0","1","3","demographics","gender","0","0","0","0","0","0","male","1","3428","0"
"471","060617","08:11:00","774292181","826046241","4.0.10.0","1","2","demographics","age","0","0","0","0","0","0","38","1","3477","0"
"472","060617","08:11:00","774292181","826046241","4.0.10.0","1","3","demographics","gender","0","0","0","0","0","0","male","1","4172","0"
"473","060617","08:10:16","702821370","551730866","4.0.10.0","1","2","demographics","age","0","0","0","0","0","0","19","1","3856","0"
"474","060617","08:10:16","702821370","551730866","4.0.10.0","1","3","demographics","gender","0","0","0","0","0","0","?","1","2512","0"
"475","060617","02:08:45","636240956","380644","4.0.10.0","1","2","demographics","age","0","0","0","0","0","0","36","1","2206","0"
"476","060617","02:08:45","636240956","380644","4.0.10.0","1","3","demographics","gender","0","0","0","0","0","0","female","1","3273","0"
"477","060617","08:04:18","606339149","128311475","4.0.10.0","1","2","demographics","age","0","0","0","0","0","0","48","1","4257","0"
"478","060617","08:04:18","606339149","128311475","4.0.10.0","1","3","demographics","gender","0","0","0","0","0","0","Female","1","6333","0"
"479","060617","08:08:00","533038614","812131722","4.0.10.0","1","2","demographics","age","0","0","0","0","0","0","39","1","2864","0"
"480","060617","08:08:00","533038614","812131722","4.0.10.0","1","3","demographics","gender","0","0","0","0","0","0","male","1","2826","0"
"481","060617","08:07:43","857103250","526525539","4.0.10.0","1","2","demographics","age","0","0","0","0","0","0","38","1","3459","0"
"482","060617","08:07:43","857103250","526525539","4.0.10.0","1","3","demographics","gender","0","0","0","0","0","0","male","1","3504","0"
"483","060617","08:06:13","374345251","425223562","4.0.10.0","1","2","demographics","age","0","0","0","0","0","0","29","1","2054","0"
"484","060617","08:06:13","374345251","425223562","4.0.10.0","1","3","demographics","gender","0","0","0","0","0","0","Male","1","4234","0"
"485","060617","08:03:17","621525020","152757934","4.0.10.0","1","2","demographics","age","0","0","0","0","0","0","33","1","4014","0"
"486","060617","08:03:17","621525020","152757934","4.0.10.0","1","3","demographics","gender","0","0","0","0","0","0","male","1","3903","0"
"487","060617","08:02:23","266565572","76846399","4.0.10.0","1","2","demographics","age","0","0","0","0","0","0","33","1","2372","0"
"488","060617","08:02:23","266565572","76846399","4.0.10.0","1","3","demographics","gender","0","0","0","0","0","0","female ","1","4198","0"
"489","060617","08:00:37","606415423","451226462","4.0.10.0","1","2","demographics","age","0","0","0","0","0","0","44","1","2933","0"
"490","060617","08:00:37","606415423","451226462","4.0.10.0","1","3","demographics","gender","0","0","0","0","0","0","Female","1","6253","0"
"491","060617","07:59:06","989257377","396800424","4.0.10.0","1","2","demographics","age","0","0","0","0","0","0","37","1","8045","0"
"492","060617","07:59:06","989257377","396800424","4.0.10.0","1","3","demographics","gender","0","0","0","0","0","0","FEMALE","1","6178","0"
"493","060617","07:57:35","303889187","125334220","4.0.10.0","1","2","demographics","age","0","0","0","0","0","0","46","1","2737","0"
"494","060617","07:57:35","303889187","125334220","4.0.10.0","1","3","demographics","gender","0","0","0","0","0","0","female","1","3101","0"
"495","060617","07:56:54","545809781","8322462","4.0.10.0","1","2","demographics","age","0","0","0","0","0","0","25","1","4784","0"
"496","060617","07:56:54","545809781","8322462","4.0.10.0","1","3","demographics","gender","0","0","0","0","0","0","female","1","4897","0"
"497","060617","02:55:10","728542825","940335659","4.0.10.0","1","2","demographics","age","0","0","0","0","0","0","59","1","7209","0"
"498","060617","02:55:10","728542825","940335659","4.0.10.0","1","3","demographics","gender","0","0","0","0","0","0","Female","1","5502","0"
"499","060617","07:55:30","795923303","389172171","4.0.10.0","1","2","demographics","age","0","0","0","0","0","0","33","1","3351","0"
"500","060617","07:55:30","795923303","389172171","4.0.10.0","1","3","demographics","gender","0","0","0","0","0","0","Female","1","5683","0"
"501","060617","07:55:05","407589896","229947944","4.0.10.0","1","2","demographics","age","0","0","0","0","0","0","36","1","4581","0"
"502","060617","07:55:05","407589896","229947944","4.0.10.0","1","3","demographics","gender","0","0","0","0","0","0","male","1","4655","0"
"503","060617","07:54:07","279435805","559423296","4.0.10.0","1","2","demographics","age","0","0","0","0","0","0","18","1","2519","0"
"504","060617","07:54:07","279435805","559423296","4.0.10.0","1","3","demographics","gender","0","0","0","0","0","0","Male","1","4044","0"
"505","060617","07:54:41","987706729","700234249","4.0.10.0","1","2","demographics","age","0","0","0","0","0","0","50","1","5143","0"
"506","060617","07:54:41","987706729","700234249","4.0.10.0","1","3","demographics","gender","0","0","0","0","0","0","female","1","3626","0"
"507","060617","07:54:22","709857441","73997128","4.0.10.0","1","2","demographics","age","0","0","0","0","0","0","56","1","2869","0"
"508","060617","07:54:22","709857441","73997128","4.0.10.0","1","3","demographics","gender","0","0","0","0","0","0","Female","1","4298","0"
"509","060617","07:54:08","309624994","384439595","4.0.10.0","1","2","demographics","age","0","0","0","0","0","0","29","1","2874","0"
"510","060617","07:54:08","309624994","384439595","4.0.10.0","1","3","demographics","gender","0","0","0","0","0","0","male","1","2523","0"
"511","060617","07:53:04","718484506","82624194","4.0.10.0","1","2","demographics","age","0","0","0","0","0","0","51","1","6842","0"
"512","060617","07:53:04","718484506","82624194","4.0.10.0","1","3","demographics","gender","0","0","0","0","0","0","female","1","6227","0"
"513","060617","07:52:36","937363765","725468450","4.0.10.0","1","2","demographics","age","0","0","0","0","0","0","52","1","4499","0"
"514","060617","07:52:36","937363765","725468450","4.0.10.0","1","3","demographics","gender","0","0","0","0","0","0","male","1","3782","0"
"515","060617","07:52:30","925755424","715033986","4.0.10.0","1","2","demographics","age","0","0","0","0","0","0","61","1","3836","0"
"516","060617","07:52:30","925755424","715033986","4.0.10.0","1","3","demographics","gender","0","0","0","0","0","0","Male","1","4625","0"
"517","060617","07:51:18","180353398","468319652","4.0.10.0","1","2","demographics","age","0","0","0","0","0","0","46","1","2698","0"
"518","060617","07:51:18","180353398","468319652","4.0.10.0","1","3","demographics","gender","0","0","0","0","0","0","Female","1","3875","0"
"519","060617","02:50:28","930205899","752563947","4.0.10.0","1","2","demographics","age","0","0","0","0","0","0","48","1","4101","0"
"520","060617","02:50:28","930205899","752563947","4.0.10.0","1","3","demographics","gender","0","0","0","0","0","0","male","1","4385","0"
"521","060617","07:49:23","880750937","730554816","4.0.10.0","1","2","demographics","age","0","0","0","0","0","0","50","1","6367","0"
"522","060617","07:49:23","880750937","730554816","4.0.10.0","1","3","demographics","gender","0","0","0","0","0","0","Male","1","9385","0"
"523","060617","16:49:04","206048418","417841252","4.0.10.0","1","2","demographics","age","0","0","0","0","0","0","37","1","3922","0"
"524","060617","16:49:04","206048418","417841252","4.0.10.0","1","3","demographics","gender","0","0","0","0","0","0","Male","1","3611","0"
"525","060617","07:46:10","940327806","484849085","4.0.10.0","1","2","demographics","age","0","0","0","0","0","0","59","1","7028","0"
"526","060617","07:46:10","940327806","484849085","4.0.10.0","1","3","demographics","gender","0","0","0","0","0","0","male","1","4692","0"
"527","060617","07:47:06","486953407","255572392","4.0.10.0","1","2","demographics","age","0","0","0","0","0","0","29","1","4528","0"
"528","060617","07:47:06","486953407","255572392","4.0.10.0","1","3","demographics","gender","0","0","0","0","0","0","female","1","6064","0"
"529","060617","07:48:00","720279217","100376433","4.0.10.0","1","2","demographics","age","0","0","0","0","0","0","25","1","2259","0"
"530","060617","07:48:00","720279217","100376433","4.0.10.0","1","3","demographics","gender","0","0","0","0","0","0","male","1","3186","0"
"531","060517","23:22:35","782432267","704590604","4.0.10.0","1","2","demographics","age","0","0","0","0","0","0","32","1","8019","0"
"532","060517","23:22:35","782432267","704590604","4.0.10.0","1","3","demographics","gender","0","0","0","0","0","0","Male","1","4561","0"
"533","060617","07:21:37","640007415","714822016","4.0.10.0","1","2","demographics","age","0","0","0","0","0","0","31","1","4191","0"
"534","060617","07:21:37","640007415","714822016","4.0.10.0","1","3","demographics","gender","0","0","0","0","0","0","male","1","4973","0"
"535","060617","07:19:51","17728371","933100441","4.0.10.0","1","2","demographics","age","0","0","0","0","0","0","57","1","4988","0"
"536","060617","07:19:51","17728371","933100441","4.0.10.0","1","3","demographics","gender","0","0","0","0","0","0","female","1","5625","0"
"537","060617","07:17:30","754215024","523747025","4.0.10.0","1","2","demographics","age","0","0","0","0","0","0","47","1","4717","0"
"538","060617","07:17:30","754215024","523747025","4.0.10.0","1","3","demographics","gender","0","0","0","0","0","0","FEMALE","1","8710","0"
"539","060517","23:26:35","852503183","204565650","4.0.10.0","1","2","demographics","age","0","0","0","0","0","0","27","1","4876","0"
"540","060517","23:26:35","852503183","204565650","4.0.10.0","1","3","demographics","gender","0","0","0","0","0","0","Male","1","5038","0"
"541","060517","21:29:19","4836365","167901609","4.0.10.0","1","2","demographics","age","0","0","0","0","0","0","39","1","3356","0"
"542","060517","21:29:19","4836365","167901609","4.0.10.0","1","3","demographics","gender","0","0","0","0","0","0","female","1","9935","0"
"543","060517","18:05:46","235688730","24687797","4.0.10.0","1","2","demographics","age","0","0","0","0","0","0","28","1","5371","0"
"544","060517","18:05:46","235688730","24687797","4.0.10.0","1","3","demographics","gender","0","0","0","0","0","0","f","1","5642","0"
"545","060517","21:02:17","473415980","624404002","4.0.10.0","1","2","demographics","age","0","0","0","0","0","0","24","1","5045","0"
"546","060517","21:02:17","473415980","624404002","4.0.10.0","1","3","demographics","gender","0","0","0","0","0","0","male","1","5277","0"
"547","060617","02:01:30","406288309","633449752","4.0.10.0","1","2","demographics","age","0","0","0","0","0","0","47","1","4041","0"
"548","060617","02:01:30","406288309","633449752","4.0.10.0","1","3","demographics","gender","0","0","0","0","0","0","Female","1","6589","0"
"549","060517","20:00:37","571045137","541651569","4.0.10.0","1","2","demographics","age","0","0","0","0","0","0","29","1","3280","0"
"550","060517","20:00:37","571045137","541651569","4.0.10.0","1","3","demographics","gender","0","0","0","0","0","0","female","1","4759","0"
"551","060617","11:01:18","338561906","542375977","4.0.10.0","1","2","demographics","age","0","0","0","0","0","0","38","1","2863","0"
"552","060617","11:01:18","338561906","542375977","4.0.10.0","1","3","demographics","gender","0","0","0","0","0","0","male","1","4666","0"
"553","060517","19:59:06","184959395","472925650","4.0.10.0","1","2","demographics","age","0","0","0","0","0","0","51","1","3719","0"
"554","060517","19:59:06","184959395","472925650","4.0.10.0","1","3","demographics","gender","0","0","0","0","0","0","female","1","4849","0"
"555","060617","01:58:18","156440387","154492649","4.0.10.0","1","2","demographics","age","0","0","0","0","0","0","34","1","2434","0"
"556","060617","01:58:18","156440387","154492649","4.0.10.0","1","3","demographics","gender","0","0","0","0","0","0","Male","1","3266","0"
"557","060617","01:56:52","646565900","26663115","4.0.10.0","1","2","demographics","age","0","0","0","0","0","0","54","1","9431","0"
"558","060617","01:56:52","646565900","26663115","4.0.10.0","1","3","demographics","gender","0","0","0","0","0","0","Female","1","6464","0"
"559","060517","17:55:50","900086106","669618107","4.0.10.0","1","2","demographics","age","0","0","0","0","0","0","46","1","6002","0"
"560","060517","17:55:50","900086106","669618107","4.0.10.0","1","3","demographics","gender","0","0","0","0","0","0","female","1","3975","0"
"561","060517","17:55:24","512112549","968383172","4.0.10.0","1","2","demographics","age","0","0","0","0","0","0","38","1","2899","0"
"562","060517","17:55:24","512112549","968383172","4.0.10.0","1","3","demographics","gender","0","0","0","0","0","0","Female","1","3712","0"
"563","060517","19:55:02","752121956","360739434","4.0.10.0","1","2","demographics","age","0","0","0","0","0","0","23","1","3705","0"
"564","060517","19:55:02","752121956","360739434","4.0.10.0","1","3","demographics","gender","0","0","0","0","0","0","Female","1","5371","0"
"565","060517","19:54:47","105036116","774756519","4.0.10.0","1","2","demographics","age","0","0","0","0","0","0","24","1","2908","0"
"566","060517","19:54:47","105036116","774756519","4.0.10.0","1","3","demographics","gender","0","0","0","0","0","0","Male","1","2515","0"
"567","060517","20:52:57","569458889","849446379","4.0.10.0","1","2","demographics","age","0","0","0","0","0","0","35","1","3025","0"
"568","060517","20:52:57","569458889","849446379","4.0.10.0","1","3","demographics","gender","0","0","0","0","0","0","female","1","3672","0"
"569","060517","17:51:36","470613361","987688795","4.0.10.0","1","2","demographics","age","0","0","0","0","0","0","53","1","8627","0"
"570","060517","17:51:36","470613361","987688795","4.0.10.0","1","3","demographics","gender","0","0","0","0","0","0","Female","1","10424","0"
"571","060617","01:50:18","555810902","706798925","4.0.10.0","1","2","demographics","age","0","0","0","0","0","0","21","1","2141","0"
"572","060617","01:50:18","555810902","706798925","4.0.10.0","1","3","demographics","gender","0","0","0","0","0","0","Male","1","3947","0"
"573","060617","01:49:27","555810902","706798925","4.0.10.0","1","2","demographics","age","0","0","0","0","0","0","21","1","2552","0"
"574","060617","01:49:27","555810902","706798925","4.0.10.0","1","3","demographics","gender","0","0","0","0","0","0","Male","1","7035","0"
"575","060617","01:46:49","223554316","892976592","4.0.10.0","1","2","demographics","age","0","0","0","0","0","0","19","1","6811","0"
"576","060617","01:46:49","223554316","892976592","4.0.10.0","1","3","demographics","gender","0","0","0","0","0","0","male","1","3001","0"
"577","060617","01:44:46","893799442","97613525","4.0.10.0","1","2","demographics","age","0","0","0","0","0","0","43","1","4213","0"
"578","060617","01:44:46","893799442","97613525","4.0.10.0","1","3","demographics","gender","0","0","0","0","0","0","Male","1","4909","0"
"579","060517","17:44:55","268112766","785188201","4.0.10.0","1","2","demographics","age","0","0","0","0","0","0","43","1","4859","0"
"580","060517","17:44:55","268112766","785188201","4.0.10.0","1","3","demographics","gender","0","0","0","0","0","0","male","1","4923","0"
"581","060617","01:42:46","221342052","296156654","4.0.10.0","1","2","demographics","age","0","0","0","0","0","0","29","1","4750","0"
"582","060617","01:42:46","221342052","296156654","4.0.10.0","1","3","demographics","gender","0","0","0","0","0","0","male","1","17934","0"
"583","060517","20:41:15","439389989","414094878","4.0.10.0","1","2","demographics","age","0","0","0","0","0","0","21","1","4108","0"
"584","060517","20:41:15","439389989","414094878","4.0.10.0","1","3","demographics","gender","0","0","0","0","0","0","male","1","3413","0"
"585","060517","17:40:22","785488242","190376757","4.0.10.0","1","2","demographics","age","0","0","0","0","0","0","24","1","3955","0"
"586","060517","17:40:22","785488242","190376757","4.0.10.0","1","3","demographics","gender","0","0","0","0","0","0","Male","1","3114","0"
"587","060517","20:37:27","956668906","642048723","4.0.10.0","1","2","demographics","age","0","0","0","0","0","0","29","1","3074","0"
"588","060517","20:37:27","956668906","642048723","4.0.10.0","1","3","demographics","gender","0","0","0","0","0","0","Male","1","3219","0"
"589","060617","07:36:37","112219332","644663377","4.0.10.0","1","2","demographics","age","0","0","0","0","0","0","22","1","2027","0"
"590","060617","07:36:37","112219332","644663377","4.0.10.0","1","3","demographics","gender","0","0","0","0","0","0","Male","1","2958","0"
"591","060517","20:35:27","344343813","383144902","4.0.10.0","1","2","demographics","age","0","0","0","0","0","0","36","1","2257","0"
"592","060517","20:35:27","344343813","383144902","4.0.10.0","1","3","demographics","gender","0","0","0","0","0","0","male","1","3364","0"
"593","060517","19:32:13","235574066","845682168","4.0.10.0","1","2","demographics","age","0","0","0","0","0","0","35","1","3140","0"
"594","060517","19:32:13","235574066","845682168","4.0.10.0","1","3","demographics","gender","0","0","0","0","0","0","male","1","3732","0"
"595","060517","19:31:40","697168922","430687410","4.0.10.0","1","2","demographics","age","0","0","0","0","0","0","25","1","2741","0"
"596","060517","19:31:40","697168922","430687410","4.0.10.0","1","3","demographics","gender","0","0","0","0","0","0","female","1","3856","0"
"597","060517","19:29:00","980065636","497420578","4.0.10.0","1","2","demographics","age","0","0","0","0","0","0","20","1","3530","0"
"598","060517","19:29:00","980065636","497420578","4.0.10.0","1","3","demographics","gender","0","0","0","0","0","0","Male","1","3052","0"
"599","060617","01:29:27","382276966","762374169","4.0.10.0","1","2","demographics","age","0","0","0","0","0","0","28","1","3887","0"
"600","060617","01:29:27","382276966","762374169","4.0.10.0","1","3","demographics","gender","0","0","0","0","0","0","male","1","6436","0"
"601","060617","01:27:52","561523582","788685024","4.0.10.0","1","2","demographics","age","0","0","0","0","0","0","27","1","2948","0"
"602","060617","01:27:52","561523582","788685024","4.0.10.0","1","3","demographics","gender","0","0","0","0","0","0","F","1","6092","0"
"603","060517","20:27:30","398560609","220918657","4.0.10.0","1","2","demographics","age","0","0","0","0","0","0","4","1","6337","0"
"604","060517","20:27:30","398560609","220918657","4.0.10.0","1","3","demographics","gender","0","0","0","0","0","0","female","1","10256","0"
"605","060517","20:26:58","181436296","942989520","4.0.10.0","1","2","demographics","age","0","0","0","0","0","0","50","1","5601","0"
"606","060517","20:26:58","181436296","942989520","4.0.10.0","1","3","demographics","gender","0","0","0","0","0","0","female","1","7070","0"
"607","060617","01:25:35","549878983","448410452","4.0.10.0","1","2","demographics","age","0","0","0","0","0","0","23","1","5986","0"
"608","060617","01:25:35","549878983","448410452","4.0.10.0","1","3","demographics","gender","0","0","0","0","0","0","f","1","3125","0"
"609","060517","19:25:02","263235040","25067771","4.0.10.0","1","2","demographics","age","0","0","0","0","0","0","29","1","14119","0"
"610","060517","19:25:02","263235040","25067771","4.0.10.0","1","3","demographics","gender","0","0","0","0","0","0","Male","1","2770","0"
"611","060617","01:23:05","178598567","100477409","4.0.10.0","1","2","demographics","age","0","0","0","0","0","0","52","1","8501","0"
"612","060617","01:23:05","178598567","100477409","4.0.10.0","1","3","demographics","gender","0","0","0","0","0","0","male","1","11054","0"
"613","060617","07:23:27","331431700","406246301","4.0.10.0","1","2","demographics","age","0","0","0","0","0","0","25","1","15338","0"
"614","060617","07:23:27","331431700","406246301","4.0.10.0","1","3","demographics","gender","0","0","0","0","0","0","Female","1","3376","0"
"615","060617","01:21:23","637048135","482753556","4.0.10.0","1","2","demographics","age","0","0","0","0","0","0","32","1","2765","0"
"616","060617","01:21:23","637048135","482753556","4.0.10.0","1","3","demographics","gender","0","0","0","0","0","0","Male","1","4205","0"
"617","060517","17:24:39","336205852","463846501","4.0.10.0","1","2","demographics","age","0","0","0","0","0","0","21","1","2964","0"
"618","060517","17:24:39","336205852","463846501","4.0.10.0","1","3","demographics","gender","0","0","0","0","0","0","M","1","3067","0"
"619","060517","19:21:00","74991772","607435816","4.0.10.0","1","2","demographics","age","0","0","0","0","0","0","35","1","3987","0"
"620","060517","19:21:00","74991772","607435816","4.0.10.0","1","3","demographics","gender","0","0","0","0","0","0","Female","1","3477","0"
"621","060517","19:20:29","411761236","20378713","4.0.10.0","1","2","demographics","age","0","0","0","0","0","0","19","1","2720","0"
"622","060517","19:20:29","411761236","20378713","4.0.10.0","1","3","demographics","gender","0","0","0","0","0","0","Male","1","3842","0"
"623","060517","20:20:26","859309079","251185389","4.0.10.0","1","2","demographics","age","0","0","0","0","0","0","51","1","3523","0"
"624","060517","20:20:26","859309079","251185389","4.0.10.0","1","3","demographics","gender","0","0","0","0","0","0","female","1","4460","0"
"625","060617","01:20:01","773252250","518549833","4.0.10.0","1","2","demographics","age","0","0","0","0","0","0","28 ","1","8155","0"
"626","060617","01:20:01","773252250","518549833","4.0.10.0","1","3","demographics","gender","0","0","0","0","0","0","male","1","5780","0"
"627","060517","17:17:01","820646642","107699894","4.0.10.0","1","2","demographics","age","0","0","0","0","0","0","45","1","2798","0"
"628","060517","17:17:01","820646642","107699894","4.0.10.0","1","3","demographics","gender","0","0","0","0","0","0","male","1","5668","0"
"629","060517","20:16:18","374119623","448934224","4.0.10.0","1","2","demographics","age","0","0","0","0","0","0","35","1","3255","0"
"630","060517","20:16:18","374119623","448934224","4.0.10.0","1","3","demographics","gender","0","0","0","0","0","0","Male","1","9196","0"
"631","060517","20:15:23","488768295","258300295","4.0.10.0","1","2","demographics","age","0","0","0","0","0","0","35","1","5899","0"
"632","060517","20:15:23","488768295","258300295","4.0.10.0","1","3","demographics","gender","0","0","0","0","0","0","male","1","5434","0"
"633","060617","01:14:10","604405951","907740815","4.0.10.0","1","2","demographics","age","0","0","0","0","0","0","45","1","4136","0"
"634","060617","01:14:10","604405951","907740815","4.0.10.0","1","3","demographics","gender","0","0","0","0","0","0","Male","1","7976","0"
"635","060517","20:14:03","947381616","22196230","4.0.10.0","1","2","demographics","age","0","0","0","0","0","0","30","1","2927","0"
"636","060517","20:14:03","947381616","22196230","4.0.10.0","1","3","demographics","gender","0","0","0","0","0","0","F","1","2669","0"
"637","060517","20:13:20","947381616","22196230","4.0.10.0","1","2","demographics","age","0","0","0","0","0","0","30","1","3335","0"
"638","060517","20:13:20","947381616","22196230","4.0.10.0","1","3","demographics","gender","0","0","0","0","0","0","F","1","3490","0"
"639","060617","10:12:01","358543070","128075070","4.0.10.0","1","2","demographics","age","0","0","0","0","0","0","24","1","7961","0"
"640","060617","10:12:01","358543070","128075070","4.0.10.0","1","3","demographics","gender","0","0","0","0","0","0","male","1","3796","0"
"641","060517","19:11:48","969157025","376700071","4.0.10.0","1","2","demographics","age","0","0","0","0","0","0","26","1","4523","0"
"642","060517","19:11:48","969157025","376700071","4.0.10.0","1","3","demographics","gender","0","0","0","0","0","0","Female","1","5298","0"
"643","060517","17:10:07","872638234","279268264","4.0.10.0","1","2","demographics","age","0","0","0","0","0","0","20","1","7480","0"
"644","060517","17:10:07","872638234","279268264","4.0.10.0","1","3","demographics","gender","0","0","0","0","0","0","Male","1","4967","0"
"645","060517","19:09:18","262415021","489576464","4.0.10.0","1","2","demographics","age","0","0","0","0","0","0","23","1","4712","0"
"646","060517","19:09:18","262415021","489576464","4.0.10.0","1","3","demographics","gender","0","0","0","0","0","0","female","1","4976","0"
"647","060617","01:05:31","607613558","169560502","4.0.10.0","1","2","demographics","age","0","0","0","0","0","0","33","1","2205","0"
"648","060617","01:05:31","607613558","169560502","4.0.10.0","1","3","demographics","gender","0","0","0","0","0","0","Male","1","5296","0"
"649","060517","20:07:37","202265405","970567617","4.0.10.0","1","2","demographics","age","0","0","0","0","0","0","20 ","1","8913","0"
"650","060517","20:07:37","202265405","970567617","4.0.10.0","1","3","demographics","gender","0","0","0","0","0","0","Male","1","4138","0"
"651","060517","19:06:26","59088080","576163515","4.0.10.0","1","2","demographics","age","0","0","0","0","0","0","28","1","3442","0"
"652","060517","19:06:26","59088080","576163515","4.0.10.0","1","3","demographics","gender","0","0","0","0","0","0","Male","1","3635","0"
"653","060517","20:03:44","898744058","819728517","4.0.10.0","1","2","demographics","age","0","0","0","0","0","0","23","1","4215","0"
"654","060517","20:03:44","898744058","819728517","4.0.10.0","1","3","demographics","gender","0","0","0","0","0","0","male","1","5052","0"
"655","060517","19:03:53","949599123","482043180","4.0.10.0","1","2","demographics","age","0","0","0","0","0","0","26","1","7035","0"
"656","060517","19:03:53","949599123","482043180","4.0.10.0","1","3","demographics","gender","0","0","0","0","0","0","Male","1","2993","0"
"657","060617","10:03:29","583973706","991516739","4.0.10.0","1","2","demographics","age","0","0","0","0","0","0","30","1","3059","0"
"658","060617","10:03:29","583973706","991516739","4.0.10.0","1","3","demographics","gender","0","0","0","0","0","0","Female","1","4411","0"
"659","060617","01:03:26","42235008","879961653","4.0.10.0","1","2","demographics","age","0","0","0","0","0","0","34","1","2405","0"
"660","060617","01:03:26","42235008","879961653","4.0.10.0","1","3","demographics","gender","0","0","0","0","0","0","Male","1","2660","0"
"661","060617","01:01:08","849806997","53621080","4.0.10.0","1","2","demographics","age","0","0","0","0","0","0","41","1","2922","0"
"662","060617","01:01:08","849806997","53621080","4.0.10.0","1","3","demographics","gender","0","0","0","0","0","0","female","1","4582","0"
"663","060517","19:00:40","678790286","592690364","4.0.10.0","1","2","demographics","age","0","0","0","0","0","0","42","1","2946","0"
"664","060517","19:00:40","678790286","592690364","4.0.10.0","1","3","demographics","gender","0","0","0","0","0","0","male","1","5116","0"
"665","060517","20:00:38","611545880","380779753","4.0.10.0","1","2","demographics","age","0","0","0","0","0","0","24","1","3854","0"
"666","060517","20:00:38","611545880","380779753","4.0.10.0","1","3","demographics","gender","0","0","0","0","0","0","Female","1","4317","0"
"667","060617","01:00:21","537769188","250594835","4.0.10.0","1","2","demographics","age","0","0","0","0","0","0","32","1","2409","0"
"668","060617","01:00:21","537769188","250594835","4.0.10.0","1","3","demographics","gender","0","0","0","0","0","0","Female","1","3584","0"
"669","060517","19:59:29","882829131","728814047","4.0.10.0","1","2","demographics","age","0","0","0","0","0","0","20","1","2804","0"
"670","060517","19:59:29","882829131","728814047","4.0.10.0","1","3","demographics","gender","0","0","0","0","0","0","male","1","2592","0"
"671","060517","18:54:35","975345166","278680042","4.0.10.0","1","2","demographics","age","0","0","0","0","0","0","28","1","4198","0"
"672","060517","18:54:35","975345166","278680042","4.0.10.0","1","3","demographics","gender","0","0","0","0","0","0","male","1","6090","0"
"673","060617","00:56:41","905703099","618528746","4.0.10.0","1","2","demographics","age","0","0","0","0","0","0","33","1","4251","0"
"674","060617","00:56:41","905703099","618528746","4.0.10.0","1","3","demographics","gender","0","0","0","0","0","0","male","1","5685","0"
"675","060517","19:56:34","178444565","176496828","4.0.10.0","1","2","demographics","age","0","0","0","0","0","0","19","1","2811","0"
"676","060517","19:56:34","178444565","176496828","4.0.10.0","1","3","demographics","gender","0","0","0","0","0","0","F","1","2575","0"
"677","060617","00:52:45","339380015","566541458","4.0.10.0","1","2","demographics","age","0","0","0","0","0","0","37","1","3133","0"
"678","060617","00:52:45","339380015","566541458","4.0.10.0","1","3","demographics","gender","0","0","0","0","0","0","Female","1","3496","0"
"679","060517","18:51:11","591113932","947274843","4.0.10.0","1","2","demographics","age","0","0","0","0","0","0","27","1","4644","0"
"680","060517","18:51:11","591113932","947274843","4.0.10.0","1","3","demographics","gender","0","0","0","0","0","0","female","1","5441","0"
"681","060617","19:49:27","294317144","55870381","4.0.10.0","1","2","demographics","age","0","0","0","0","0","0","44","1","3640","0"
"682","060617","19:49:27","294317144","55870381","4.0.10.0","1","3","demographics","gender","0","0","0","0","0","0","Male","1","4194","0"
"683","060517","19:49:27","62913785","903901200","4.0.10.0","1","2","demographics","age","0","0","0","0","0","0","29","1","2949","0"
"684","060517","19:49:27","62913785","903901200","4.0.10.0","1","3","demographics","gender","0","0","0","0","0","0","male","1","4979","0"
"685","060517","19:49:22","197984194","730428237","4.0.10.0","1","2","demographics","age","0","0","0","0","0","0","20","1","5090","0"
"686","060517","19:49:22","197984194","730428237","4.0.10.0","1","3","demographics","gender","0","0","0","0","0","0","Trans man","1","12359","0"
"687","060517","19:48:27","410337610","614151680","4.0.10.0","1","2","demographics","age","0","0","0","0","0","0","24","1","2615","0"
"688","060517","19:48:27","410337610","614151680","4.0.10.0","1","3","demographics","gender","0","0","0","0","0","0","Male","1","6227","0"
"689","060517","19:46:58","879405327","34491820","4.0.10.0","1","2","demographics","age","0","0","0","0","0","0","20","1","2438","0"
"690","060517","19:46:58","879405327","34491820","4.0.10.0","1","3","demographics","gender","0","0","0","0","0","0","male","1","16697","0"
"691","060517","18:47:17","476236849","688029683","4.0.10.0","1","2","demographics","age","0","0","0","0","0","0","44","1","1557","0"
"692","060517","18:47:17","476236849","688029683","4.0.10.0","1","3","demographics","gender","0","0","0","0","0","0","Male","1","3010","0"
"693","060517","18:46:32","476236849","688029683","4.0.10.0","1","2","demographics","age","0","0","0","0","0","0","44","1","2154","0"
"694","060517","18:46:32","476236849","688029683","4.0.10.0","1","3","demographics","gender","0","0","0","0","0","0","Male","1","3607","0"
"695","060617","09:46:46","582964919","995832184","4.0.10.0","1","2","demographics","age","0","0","0","0","0","0","19","1","2746","0"
"696","060617","09:46:46","582964919","995832184","4.0.10.0","1","3","demographics","gender","0","0","0","0","0","0","Male","1","5928","0"
"697","060517","18:45:32","531312443","735126513","4.0.10.0","1","2","demographics","age","0","0","0","0","0","0","18","1","2687","0"
"698","060517","18:45:32","531312443","735126513","4.0.10.0","1","3","demographics","gender","0","0","0","0","0","0","Male","1","3092","0"
"699","060617","00:45:10","193701086","107880659","4.0.10.0","1","2","demographics","age","0","0","0","0","0","0","37","1","3629","0"
"700","060617","00:45:10","193701086","107880659","4.0.10.0","1","3","demographics","gender","0","0","0","0","0","0","Female","1","3836","0"
"701","060517","18:44:30","531312443","735126513","4.0.10.0","1","2","demographics","age","0","0","0","0","0","0","18","1","2753","0"
"702","060517","18:44:30","531312443","735126513","4.0.10.0","1","3","demographics","gender","0","0","0","0","0","0","Male","1","4062","0"
"703","060517","19:44:36","540721604","515426494","4.0.10.0","1","2","demographics","age","0","0","0","0","0","0","33","1","3735","0"
"704","060517","19:44:36","540721604","515426494","4.0.10.0","1","3","demographics","gender","0","0","0","0","0","0","female","1","5404","0"
"705","060617","00:44:00","353253186","632942550","4.0.10.0","1","2","demographics","age","0","0","0","0","0","0","26","1","3326","0"
"706","060617","00:44:00","353253186","632942550","4.0.10.0","1","3","demographics","gender","0","0","0","0","0","0","male","1","4446","0"
"707","060517","19:42:56","346228556","626216047","4.0.10.0","1","2","demographics","age","0","0","0","0","0","0","60","1","3633","0"
"708","060517","19:42:56","346228556","626216047","4.0.10.0","1","3","demographics","gender","0","0","0","0","0","0","Female","1","6153","0"
"709","060517","16:42:22","250572935","72930983","4.0.10.0","1","2","demographics","age","0","0","0","0","0","0","26","1","5300","0"
"710","060517","16:42:22","250572935","72930983","4.0.10.0","1","3","demographics","gender","0","0","0","0","0","0","male","1","3877","0"
"711","060517","18:42:16","111291474","238932124","4.0.10.0","1","2","demographics","age","0","0","0","0","0","0","40","1","3830","0"
"712","060517","18:42:16","111291474","238932124","4.0.10.0","1","3","demographics","gender","0","0","0","0","0","0","Male","1","5052","0"
"713","060517","18:42:02","476236849","688029683","4.0.10.0","1","2","demographics","age","0","0","0","0","0","0","44","1","3015","0"
"714","060517","18:42:02","476236849","688029683","4.0.10.0","1","3","demographics","gender","0","0","0","0","0","0","Male","1","6824","0"
"715","060517","18:41:37","889331167","964145769","4.0.10.0","1","2","demographics","age","0","0","0","0","0","0","23","1","2906","0"
"716","060517","18:41:37","889331167","964145769","4.0.10.0","1","3","demographics","gender","0","0","0","0","0","0","Female","1","3935","0"
"717","060517","19:41:00","940050115","709582116","4.0.10.0","1","2","demographics","age","0","0","0","0","0","0","25","1","2049","0"
"718","060517","19:41:00","940050115","709582116","4.0.10.0","1","3","demographics","gender","0","0","0","0","0","0","Female","1","2886","0"
"719","060517","19:41:01","673664782","5034407","4.0.10.0","1","2","demographics","age","0","0","0","0","0","0","58","1","4582","0"
"720","060517","19:41:01","673664782","5034407","4.0.10.0","1","3","demographics","gender","0","0","0","0","0","0","female","1","9216","0"
"721","060617","00:41:45","103390865","925748901","4.0.10.0","1","2","demographics","age","0","0","0","0","0","0","33","1","3417","0"
"722","060617","00:41:45","103390865","925748901","4.0.10.0","1","3","demographics","gender","0","0","0","0","0","0","Female","1","5744","0"
"723","060517","19:39:37","691685487","252164292","4.0.10.0","1","2","demographics","age","0","0","0","0","0","0","60","1","3975","0"
"724","060517","19:39:37","691685487","252164292","4.0.10.0","1","3","demographics","gender","0","0","0","0","0","0","Female","1","6369","0"
"725","060617","00:40:48","651621977","982991589","4.0.10.0","1","2","demographics","age","0","0","0","0","0","0","33","1","3607","0"
"726","060617","00:40:48","651621977","982991589","4.0.10.0","1","3","demographics","gender","0","0","0","0","0","0","Female","1","4845","0"
"727","060617","00:38:03","428274955","527880855","4.0.10.0","1","2","demographics","age","0","0","0","0","0","0","31","1","3917","0"
"728","060617","00:38:03","428274955","527880855","4.0.10.0","1","3","demographics","gender","0","0","0","0","0","0","female","1","5001","0"
"729","060517","19:38:03","539322634","175974860","4.0.10.0","1","2","demographics","age","0","0","0","0","0","0","63","1","4453","0"
"730","060517","19:38:03","539322634","175974860","4.0.10.0","1","3","demographics","gender","0","0","0","0","0","0","female","1","5873","0"
