colourB,colourA,instruction,orStimulusLeft,orStimulusRight,block,nBlockRepeats,attribute2,attribute1,target2,condition,target1,stimulusColour,stimulus,feedbackKey,feedbackAllowed,trialtype,requiredAllowed,requiredKey,imageStimulus,subscale,exemplar,SCIAT1blocks.thisRepN,SCIAT1blocks.thisTrialN,SCIAT1blocks.thisN,SCIAT1blocks.thisIndex,SCIAT1trials.thisRepN,SCIAT1trials.thisTrialN,SCIAT1trials.thisN,SCIAT1trials.thisIndex,likertPre.thisRepN,likertPre.thisTrialN,likertPre.thisN,likertPre.thisIndex,IATblocks.thisRepN,IATblocks.thisTrialN,IATblocks.thisN,IATblocks.thisIndex,IATtrials.thisRepN,IATtrials.thisTrialN,IATtrials.thisN,IATtrials.thisIndex,likertPost.thisRepN,likertPost.thisTrialN,likertPost.thisN,likertPost.thisIndex,SCIAT2blocks.thisRepN,SCIAT2blocks.thisTrialN,SCIAT2blocks.thisN,SCIAT2blocks.thisIndex,SCIAT2trials.thisRepN,SCIAT2trials.thisTrialN,SCIAT2trials.thisN,SCIAT2trials.thisIndex,likertValence.thisRepN,likertValence.thisTrialN,likertValence.thisN,likertValence.thisIndex,recognition.response,requiredResponse.keys,requiredResponse.corr,requiredResponse.rt,feedbackResponse.keys,feedbackResponse.corr,feedbackResponse.rt,rating.response,participant,gender,age,frameRate,expName,date,
,,,,,,,,,,,,,,,,,,,,,,,,,,,,,,,,,,,,,,,,,,,,,,,,,,,,,,,,,,0,,,,,,,,50,F,19,64.1593364484,SCIAT IAT and likerts,2016_mrt_02_1040,
purple,white,"In deze taak zullen stimuli een voor een op het scherm verschijnen. Jouw taak bestaat erin om op de linkse (E) of rechtse (I) toets te duwen afhankelijk van de categorie waartoe elke stimulus behoort.  Er zijn drie mogelijke categorieen:

(1) POSITIEF
(2) NEGATIEF
(3) CHINESE SYMBOLEN

Welke categorieen aan welke knop zijn toegewezen, verschilt van fase tot fase. De categorieen die aan de linkerknop zijn toegewezen, zullen in de linker-bovenhoek van het scherm staan. De categorieen die aan de rechterknop zijn toegewezen, zullen in de rechter-bovenhoek van het scherm staan.

Probeer steeds zo snel mogelijk te antwoorden zonder te veel fouten te maken. Wanneer je een fout zou maken zal er een rood kruis verschijnen. Dit kruis zal blijven staan totdat je alsnog de juiste toets induwt.

Probeer steeds zo snel mogelijk te antwoorden zonder te veel fouten te maken.

Druk op E of I om verder te gaan.", , ,trials_SCIAT_attributes.xlsx,2,Positief,Negatief, ,2, ,purple,pijn,i,i,4,e,e,blank.png,,,0,0,0,0,0,0,0,6,,,,,,,,,,,,,,,,,,,,,,,,,,,,,,e,1,1.49754958123,None,0,,,50,F,19,64.1593364484,SCIAT IAT and likerts,2016_mrt_02_1040,
purple,white,"In deze taak zullen stimuli een voor een op het scherm verschijnen. Jouw taak bestaat erin om op de linkse (E) of rechtse (I) toets te duwen afhankelijk van de categorie waartoe elke stimulus behoort.  Er zijn drie mogelijke categorieen:

(1) POSITIEF
(2) NEGATIEF
(3) CHINESE SYMBOLEN

Welke categorieen aan welke knop zijn toegewezen, verschilt van fase tot fase. De categorieen die aan de linkerknop zijn toegewezen, zullen in de linker-bovenhoek van het scherm staan. De categorieen die aan de rechterknop zijn toegewezen, zullen in de rechter-bovenhoek van het scherm staan.

Probeer steeds zo snel mogelijk te antwoorden zonder te veel fouten te maken. Wanneer je een fout zou maken zal er een rood kruis verschijnen. Dit kruis zal blijven staan totdat je alsnog de juiste toets induwt.

Probeer steeds zo snel mogelijk te antwoorden zonder te veel fouten te maken.

Druk op E of I om verder te gaan.", , ,trials_SCIAT_attributes.xlsx,2,Positief,Negatief, ,2, ,purple,walging,i,i,4,e,e,blank.png,,,0,0,0,0,0,1,1,5,,,,,,,,,,,,,,,,,,,,,,,,,,,,,,e,1,0.951643147622,None,0,,,50,F,19,64.1593364484,SCIAT IAT and likerts,2016_mrt_02_1040,
purple,white,"In deze taak zullen stimuli een voor een op het scherm verschijnen. Jouw taak bestaat erin om op de linkse (E) of rechtse (I) toets te duwen afhankelijk van de categorie waartoe elke stimulus behoort.  Er zijn drie mogelijke categorieen:

(1) POSITIEF
(2) NEGATIEF
(3) CHINESE SYMBOLEN

Welke categorieen aan welke knop zijn toegewezen, verschilt van fase tot fase. De categorieen die aan de linkerknop zijn toegewezen, zullen in de linker-bovenhoek van het scherm staan. De categorieen die aan de rechterknop zijn toegewezen, zullen in de rechter-bovenhoek van het scherm staan.

Probeer steeds zo snel mogelijk te antwoorden zonder te veel fouten te maken. Wanneer je een fout zou maken zal er een rood kruis verschijnen. Dit kruis zal blijven staan totdat je alsnog de juiste toets induwt.

Probeer steeds zo snel mogelijk te antwoorden zonder te veel fouten te maken.

Druk op E of I om verder te gaan.", , ,trials_SCIAT_attributes.xlsx,2,Positief,Negatief, ,2, ,purple,geluk,e,e,3,i,i,blank.png,,,0,0,0,0,0,2,2,0,,,,,,,,,,,,,,,,,,,,,,,,,,,,,,i,1,0.88907252322,None,0,,,50,F,19,64.1593364484,SCIAT IAT and likerts,2016_mrt_02_1040,
purple,white,"In deze taak zullen stimuli een voor een op het scherm verschijnen. Jouw taak bestaat erin om op de linkse (E) of rechtse (I) toets te duwen afhankelijk van de categorie waartoe elke stimulus behoort.  Er zijn drie mogelijke categorieen:

(1) POSITIEF
(2) NEGATIEF
(3) CHINESE SYMBOLEN

Welke categorieen aan welke knop zijn toegewezen, verschilt van fase tot fase. De categorieen die aan de linkerknop zijn toegewezen, zullen in de linker-bovenhoek van het scherm staan. De categorieen die aan de rechterknop zijn toegewezen, zullen in de rechter-bovenhoek van het scherm staan.

Probeer steeds zo snel mogelijk te antwoorden zonder te veel fouten te maken. Wanneer je een fout zou maken zal er een rood kruis verschijnen. Dit kruis zal blijven staan totdat je alsnog de juiste toets induwt.

Probeer steeds zo snel mogelijk te antwoorden zonder te veel fouten te maken.

Druk op E of I om verder te gaan.", , ,trials_SCIAT_attributes.xlsx,2,Positief,Negatief, ,2, ,purple,goed,e,e,3,i,i,blank.png,,,0,0,0,0,0,3,3,4,,,,,,,,,,,,,,,,,,,,,,,,,,,,,,i,1,0.982879467192,None,0,,,50,F,19,64.1593364484,SCIAT IAT and likerts,2016_mrt_02_1040,
purple,white,"In deze taak zullen stimuli een voor een op het scherm verschijnen. Jouw taak bestaat erin om op de linkse (E) of rechtse (I) toets te duwen afhankelijk van de categorie waartoe elke stimulus behoort.  Er zijn drie mogelijke categorieen:

(1) POSITIEF
(2) NEGATIEF
(3) CHINESE SYMBOLEN

Welke categorieen aan welke knop zijn toegewezen, verschilt van fase tot fase. De categorieen die aan de linkerknop zijn toegewezen, zullen in de linker-bovenhoek van het scherm staan. De categorieen die aan de rechterknop zijn toegewezen, zullen in de rechter-bovenhoek van het scherm staan.

Probeer steeds zo snel mogelijk te antwoorden zonder te veel fouten te maken. Wanneer je een fout zou maken zal er een rood kruis verschijnen. Dit kruis zal blijven staan totdat je alsnog de juiste toets induwt.

Probeer steeds zo snel mogelijk te antwoorden zonder te veel fouten te maken.

Druk op E of I om verder te gaan.", , ,trials_SCIAT_attributes.xlsx,2,Positief,Negatief, ,2, ,purple,prettig,e,e,3,i,i,blank.png,,,0,0,0,0,0,4,4,3,,,,,,,,,,,,,,,,,,,,,,,,,,,,,,i,1,0.592979601701,None,0,,,50,F,19,64.1593364484,SCIAT IAT and likerts,2016_mrt_02_1040,
purple,white,"In deze taak zullen stimuli een voor een op het scherm verschijnen. Jouw taak bestaat erin om op de linkse (E) of rechtse (I) toets te duwen afhankelijk van de categorie waartoe elke stimulus behoort.  Er zijn drie mogelijke categorieen:

(1) POSITIEF
(2) NEGATIEF
(3) CHINESE SYMBOLEN

Welke categorieen aan welke knop zijn toegewezen, verschilt van fase tot fase. De categorieen die aan de linkerknop zijn toegewezen, zullen in de linker-bovenhoek van het scherm staan. De categorieen die aan de rechterknop zijn toegewezen, zullen in de rechter-bovenhoek van het scherm staan.

Probeer steeds zo snel mogelijk te antwoorden zonder te veel fouten te maken. Wanneer je een fout zou maken zal er een rood kruis verschijnen. Dit kruis zal blijven staan totdat je alsnog de juiste toets induwt.

Probeer steeds zo snel mogelijk te antwoorden zonder te veel fouten te maken.

Druk op E of I om verder te gaan.", , ,trials_SCIAT_attributes.xlsx,2,Positief,Negatief, ,2, ,purple,vijandig,i,i,4,e,e,blank.png,,,0,0,0,0,0,5,5,8,,,,,,,,,,,,,,,,,,,,,,,,,,,,,,e,1,0.717798447702,None,0,,,50,F,19,64.1593364484,SCIAT IAT and likerts,2016_mrt_02_1040,
purple,white,"In deze taak zullen stimuli een voor een op het scherm verschijnen. Jouw taak bestaat erin om op de linkse (E) of rechtse (I) toets te duwen afhankelijk van de categorie waartoe elke stimulus behoort.  Er zijn drie mogelijke categorieen:

(1) POSITIEF
(2) NEGATIEF
(3) CHINESE SYMBOLEN

Welke categorieen aan welke knop zijn toegewezen, verschilt van fase tot fase. De categorieen die aan de linkerknop zijn toegewezen, zullen in de linker-bovenhoek van het scherm staan. De categorieen die aan de rechterknop zijn toegewezen, zullen in de rechter-bovenhoek van het scherm staan.

Probeer steeds zo snel mogelijk te antwoorden zonder te veel fouten te maken. Wanneer je een fout zou maken zal er een rood kruis verschijnen. Dit kruis zal blijven staan totdat je alsnog de juiste toets induwt.

Probeer steeds zo snel mogelijk te antwoorden zonder te veel fouten te maken.

Druk op E of I om verder te gaan.", , ,trials_SCIAT_attributes.xlsx,2,Positief,Negatief, ,2, ,purple,gemeen,i,i,4,e,e,blank.png,,,0,0,0,0,0,6,6,7,,,,,,,,,,,,,,,,,,,,,,,,,,,,,,e,1,0.60850036901,None,0,,,50,F,19,64.1593364484,SCIAT IAT and likerts,2016_mrt_02_1040,
purple,white,"In deze taak zullen stimuli een voor een op het scherm verschijnen. Jouw taak bestaat erin om op de linkse (E) of rechtse (I) toets te duwen afhankelijk van de categorie waartoe elke stimulus behoort.  Er zijn drie mogelijke categorieen:

(1) POSITIEF
(2) NEGATIEF
(3) CHINESE SYMBOLEN

Welke categorieen aan welke knop zijn toegewezen, verschilt van fase tot fase. De categorieen die aan de linkerknop zijn toegewezen, zullen in de linker-bovenhoek van het scherm staan. De categorieen die aan de rechterknop zijn toegewezen, zullen in de rechter-bovenhoek van het scherm staan.

Probeer steeds zo snel mogelijk te antwoorden zonder te veel fouten te maken. Wanneer je een fout zou maken zal er een rood kruis verschijnen. Dit kruis zal blijven staan totdat je alsnog de juiste toets induwt.

Probeer steeds zo snel mogelijk te antwoorden zonder te veel fouten te maken.

Druk op E of I om verder te gaan.", , ,trials_SCIAT_attributes.xlsx,2,Positief,Negatief, ,2, ,purple,vriendelijk,e,e,3,i,i,blank.png,,,0,0,0,0,0,7,7,2,,,,,,,,,,,,,,,,,,,,,,,,,,,,,,i,1,0.733361095772,None,0,,,50,F,19,64.1593364484,SCIAT IAT and likerts,2016_mrt_02_1040,
purple,white,"In deze taak zullen stimuli een voor een op het scherm verschijnen. Jouw taak bestaat erin om op de linkse (E) of rechtse (I) toets te duwen afhankelijk van de categorie waartoe elke stimulus behoort.  Er zijn drie mogelijke categorieen:

(1) POSITIEF
(2) NEGATIEF
(3) CHINESE SYMBOLEN

Welke categorieen aan welke knop zijn toegewezen, verschilt van fase tot fase. De categorieen die aan de linkerknop zijn toegewezen, zullen in de linker-bovenhoek van het scherm staan. De categorieen die aan de rechterknop zijn toegewezen, zullen in de rechter-bovenhoek van het scherm staan.

Probeer steeds zo snel mogelijk te antwoorden zonder te veel fouten te maken. Wanneer je een fout zou maken zal er een rood kruis verschijnen. Dit kruis zal blijven staan totdat je alsnog de juiste toets induwt.

Probeer steeds zo snel mogelijk te antwoorden zonder te veel fouten te maken.

Druk op E of I om verder te gaan.", , ,trials_SCIAT_attributes.xlsx,2,Positief,Negatief, ,2, ,purple,hatelijk,i,i,4,e,e,blank.png,,,0,0,0,0,0,8,8,9,,,,,,,,,,,,,,,,,,,,,,,,,,,,,,e,1,0.608503529802,None,0,,,50,F,19,64.1593364484,SCIAT IAT and likerts,2016_mrt_02_1040,
purple,white,"In deze taak zullen stimuli een voor een op het scherm verschijnen. Jouw taak bestaat erin om op de linkse (E) of rechtse (I) toets te duwen afhankelijk van de categorie waartoe elke stimulus behoort.  Er zijn drie mogelijke categorieen:

(1) POSITIEF
(2) NEGATIEF
(3) CHINESE SYMBOLEN

Welke categorieen aan welke knop zijn toegewezen, verschilt van fase tot fase. De categorieen die aan de linkerknop zijn toegewezen, zullen in de linker-bovenhoek van het scherm staan. De categorieen die aan de rechterknop zijn toegewezen, zullen in de rechter-bovenhoek van het scherm staan.

Probeer steeds zo snel mogelijk te antwoorden zonder te veel fouten te maken. Wanneer je een fout zou maken zal er een rood kruis verschijnen. Dit kruis zal blijven staan totdat je alsnog de juiste toets induwt.

Probeer steeds zo snel mogelijk te antwoorden zonder te veel fouten te maken.

Druk op E of I om verder te gaan.", , ,trials_SCIAT_attributes.xlsx,2,Positief,Negatief, ,2, ,purple,blij,e,e,3,i,i,blank.png,,,0,0,0,0,0,9,9,1,,,,,,,,,,,,,,,,,,,,,,,,,,,,,,i,1,0.842331240419,None,0,,,50,F,19,64.1593364484,SCIAT IAT and likerts,2016_mrt_02_1040,
purple,white,"In deze taak zullen stimuli een voor een op het scherm verschijnen. Jouw taak bestaat erin om op de linkse (E) of rechtse (I) toets te duwen afhankelijk van de categorie waartoe elke stimulus behoort.  Er zijn drie mogelijke categorieen:

(1) POSITIEF
(2) NEGATIEF
(3) CHINESE SYMBOLEN

Welke categorieen aan welke knop zijn toegewezen, verschilt van fase tot fase. De categorieen die aan de linkerknop zijn toegewezen, zullen in de linker-bovenhoek van het scherm staan. De categorieen die aan de rechterknop zijn toegewezen, zullen in de rechter-bovenhoek van het scherm staan.

Probeer steeds zo snel mogelijk te antwoorden zonder te veel fouten te maken. Wanneer je een fout zou maken zal er een rood kruis verschijnen. Dit kruis zal blijven staan totdat je alsnog de juiste toets induwt.

Probeer steeds zo snel mogelijk te antwoorden zonder te veel fouten te maken.

Druk op E of I om verder te gaan.", , ,trials_SCIAT_attributes.xlsx,2,Positief,Negatief, ,2, ,purple,gemeen,i,i,4,e,e,blank.png,,,0,0,0,0,1,0,10,7,,,,,,,,,,,,,,,,,,,,,,,,,,,,,,e,1,0.577249825816,None,0,,,50,F,19,64.1593364484,SCIAT IAT and likerts,2016_mrt_02_1040,
purple,white,"In deze taak zullen stimuli een voor een op het scherm verschijnen. Jouw taak bestaat erin om op de linkse (E) of rechtse (I) toets te duwen afhankelijk van de categorie waartoe elke stimulus behoort.  Er zijn drie mogelijke categorieen:

(1) POSITIEF
(2) NEGATIEF
(3) CHINESE SYMBOLEN

Welke categorieen aan welke knop zijn toegewezen, verschilt van fase tot fase. De categorieen die aan de linkerknop zijn toegewezen, zullen in de linker-bovenhoek van het scherm staan. De categorieen die aan de rechterknop zijn toegewezen, zullen in de rechter-bovenhoek van het scherm staan.

Probeer steeds zo snel mogelijk te antwoorden zonder te veel fouten te maken. Wanneer je een fout zou maken zal er een rood kruis verschijnen. Dit kruis zal blijven staan totdat je alsnog de juiste toets induwt.

Probeer steeds zo snel mogelijk te antwoorden zonder te veel fouten te maken.

Druk op E of I om verder te gaan.", , ,trials_SCIAT_attributes.xlsx,2,Positief,Negatief, ,2, ,purple,hatelijk,i,i,4,e,e,blank.png,,,0,0,0,0,1,1,11,9,,,,,,,,,,,,,,,,,,,,,,,,,,,,,,e,1,1.20106550935,i,1,0.623988342937,,50,F,19,64.1593364484,SCIAT IAT and likerts,2016_mrt_02_1040,
purple,white,"In deze taak zullen stimuli een voor een op het scherm verschijnen. Jouw taak bestaat erin om op de linkse (E) of rechtse (I) toets te duwen afhankelijk van de categorie waartoe elke stimulus behoort.  Er zijn drie mogelijke categorieen:

(1) POSITIEF
(2) NEGATIEF
(3) CHINESE SYMBOLEN

Welke categorieen aan welke knop zijn toegewezen, verschilt van fase tot fase. De categorieen die aan de linkerknop zijn toegewezen, zullen in de linker-bovenhoek van het scherm staan. De categorieen die aan de rechterknop zijn toegewezen, zullen in de rechter-bovenhoek van het scherm staan.

Probeer steeds zo snel mogelijk te antwoorden zonder te veel fouten te maken. Wanneer je een fout zou maken zal er een rood kruis verschijnen. Dit kruis zal blijven staan totdat je alsnog de juiste toets induwt.

Probeer steeds zo snel mogelijk te antwoorden zonder te veel fouten te maken.

Druk op E of I om verder te gaan.", , ,trials_SCIAT_attributes.xlsx,2,Positief,Negatief, ,2, ,purple,vriendelijk,e,e,3,i,i,blank.png,,,0,0,0,0,1,2,12,2,,,,,,,,,,,,,,,,,,,,,,,,,,,,,,i,1,0.951685818494,None,0,,,50,F,19,64.1593364484,SCIAT IAT and likerts,2016_mrt_02_1040,
purple,white,"In deze taak zullen stimuli een voor een op het scherm verschijnen. Jouw taak bestaat erin om op de linkse (E) of rechtse (I) toets te duwen afhankelijk van de categorie waartoe elke stimulus behoort.  Er zijn drie mogelijke categorieen:

(1) POSITIEF
(2) NEGATIEF
(3) CHINESE SYMBOLEN

Welke categorieen aan welke knop zijn toegewezen, verschilt van fase tot fase. De categorieen die aan de linkerknop zijn toegewezen, zullen in de linker-bovenhoek van het scherm staan. De categorieen die aan de rechterknop zijn toegewezen, zullen in de rechter-bovenhoek van het scherm staan.

Probeer steeds zo snel mogelijk te antwoorden zonder te veel fouten te maken. Wanneer je een fout zou maken zal er een rood kruis verschijnen. Dit kruis zal blijven staan totdat je alsnog de juiste toets induwt.

Probeer steeds zo snel mogelijk te antwoorden zonder te veel fouten te maken.

Druk op E of I om verder te gaan.", , ,trials_SCIAT_attributes.xlsx,2,Positief,Negatief, ,2, ,purple,vijandig,i,i,4,e,e,blank.png,,,0,0,0,0,1,3,13,8,,,,,,,,,,,,,,,,,,,,,,,,,,,,,,e,1,0.717697696877,None,0,,,50,F,19,64.1593364484,SCIAT IAT and likerts,2016_mrt_02_1040,
purple,white,"In deze taak zullen stimuli een voor een op het scherm verschijnen. Jouw taak bestaat erin om op de linkse (E) of rechtse (I) toets te duwen afhankelijk van de categorie waartoe elke stimulus behoort.  Er zijn drie mogelijke categorieen:

(1) POSITIEF
(2) NEGATIEF
(3) CHINESE SYMBOLEN

Welke categorieen aan welke knop zijn toegewezen, verschilt van fase tot fase. De categorieen die aan de linkerknop zijn toegewezen, zullen in de linker-bovenhoek van het scherm staan. De categorieen die aan de rechterknop zijn toegewezen, zullen in de rechter-bovenhoek van het scherm staan.

Probeer steeds zo snel mogelijk te antwoorden zonder te veel fouten te maken. Wanneer je een fout zou maken zal er een rood kruis verschijnen. Dit kruis zal blijven staan totdat je alsnog de juiste toets induwt.

Probeer steeds zo snel mogelijk te antwoorden zonder te veel fouten te maken.

Druk op E of I om verder te gaan.", , ,trials_SCIAT_attributes.xlsx,2,Positief,Negatief, ,2, ,purple,pijn,i,i,4,e,e,blank.png,,,0,0,0,0,1,4,14,6,,,,,,,,,,,,,,,,,,,,,,,,,,,,,,e,1,0.577305930201,None,0,,,50,F,19,64.1593364484,SCIAT IAT and likerts,2016_mrt_02_1040,
purple,white,"In deze taak zullen stimuli een voor een op het scherm verschijnen. Jouw taak bestaat erin om op de linkse (E) of rechtse (I) toets te duwen afhankelijk van de categorie waartoe elke stimulus behoort.  Er zijn drie mogelijke categorieen:

(1) POSITIEF
(2) NEGATIEF
(3) CHINESE SYMBOLEN

Welke categorieen aan welke knop zijn toegewezen, verschilt van fase tot fase. De categorieen die aan de linkerknop zijn toegewezen, zullen in de linker-bovenhoek van het scherm staan. De categorieen die aan de rechterknop zijn toegewezen, zullen in de rechter-bovenhoek van het scherm staan.

Probeer steeds zo snel mogelijk te antwoorden zonder te veel fouten te maken. Wanneer je een fout zou maken zal er een rood kruis verschijnen. Dit kruis zal blijven staan totdat je alsnog de juiste toets induwt.

Probeer steeds zo snel mogelijk te antwoorden zonder te veel fouten te maken.

Druk op E of I om verder te gaan.", , ,trials_SCIAT_attributes.xlsx,2,Positief,Negatief, ,2, ,purple,goed,e,e,3,i,i,blank.png,,,0,0,0,0,1,5,15,4,,,,,,,,,,,,,,,,,,,,,,,,,,,,,,i,1,0.639723255183,None,0,,,50,F,19,64.1593364484,SCIAT IAT and likerts,2016_mrt_02_1040,
purple,white,"In deze taak zullen stimuli een voor een op het scherm verschijnen. Jouw taak bestaat erin om op de linkse (E) of rechtse (I) toets te duwen afhankelijk van de categorie waartoe elke stimulus behoort.  Er zijn drie mogelijke categorieen:

(1) POSITIEF
(2) NEGATIEF
(3) CHINESE SYMBOLEN

Welke categorieen aan welke knop zijn toegewezen, verschilt van fase tot fase. De categorieen die aan de linkerknop zijn toegewezen, zullen in de linker-bovenhoek van het scherm staan. De categorieen die aan de rechterknop zijn toegewezen, zullen in de rechter-bovenhoek van het scherm staan.

Probeer steeds zo snel mogelijk te antwoorden zonder te veel fouten te maken. Wanneer je een fout zou maken zal er een rood kruis verschijnen. Dit kruis zal blijven staan totdat je alsnog de juiste toets induwt.

Probeer steeds zo snel mogelijk te antwoorden zonder te veel fouten te maken.

Druk op E of I om verder te gaan.", , ,trials_SCIAT_attributes.xlsx,2,Positief,Negatief, ,2, ,purple,geluk,e,e,3,i,i,blank.png,,,0,0,0,0,1,6,16,0,,,,,,,,,,,,,,,,,,,,,,,,,,,,,,i,1,0.561674139346,None,0,,,50,F,19,64.1593364484,SCIAT IAT and likerts,2016_mrt_02_1040,
purple,white,"In deze taak zullen stimuli een voor een op het scherm verschijnen. Jouw taak bestaat erin om op de linkse (E) of rechtse (I) toets te duwen afhankelijk van de categorie waartoe elke stimulus behoort.  Er zijn drie mogelijke categorieen:

(1) POSITIEF
(2) NEGATIEF
(3) CHINESE SYMBOLEN

Welke categorieen aan welke knop zijn toegewezen, verschilt van fase tot fase. De categorieen die aan de linkerknop zijn toegewezen, zullen in de linker-bovenhoek van het scherm staan. De categorieen die aan de rechterknop zijn toegewezen, zullen in de rechter-bovenhoek van het scherm staan.

Probeer steeds zo snel mogelijk te antwoorden zonder te veel fouten te maken. Wanneer je een fout zou maken zal er een rood kruis verschijnen. Dit kruis zal blijven staan totdat je alsnog de juiste toets induwt.

Probeer steeds zo snel mogelijk te antwoorden zonder te veel fouten te maken.

Druk op E of I om verder te gaan.", , ,trials_SCIAT_attributes.xlsx,2,Positief,Negatief, ,2, ,purple,walging,i,i,4,e,e,blank.png,,,0,0,0,0,1,7,17,5,,,,,,,,,,,,,,,,,,,,,,,,,,,,,,e,1,0.561575759086,None,0,,,50,F,19,64.1593364484,SCIAT IAT and likerts,2016_mrt_02_1040,
purple,white,"In deze taak zullen stimuli een voor een op het scherm verschijnen. Jouw taak bestaat erin om op de linkse (E) of rechtse (I) toets te duwen afhankelijk van de categorie waartoe elke stimulus behoort.  Er zijn drie mogelijke categorieen:

(1) POSITIEF
(2) NEGATIEF
(3) CHINESE SYMBOLEN

Welke categorieen aan welke knop zijn toegewezen, verschilt van fase tot fase. De categorieen die aan de linkerknop zijn toegewezen, zullen in de linker-bovenhoek van het scherm staan. De categorieen die aan de rechterknop zijn toegewezen, zullen in de rechter-bovenhoek van het scherm staan.

Probeer steeds zo snel mogelijk te antwoorden zonder te veel fouten te maken. Wanneer je een fout zou maken zal er een rood kruis verschijnen. Dit kruis zal blijven staan totdat je alsnog de juiste toets induwt.

Probeer steeds zo snel mogelijk te antwoorden zonder te veel fouten te maken.

Druk op E of I om verder te gaan.", , ,trials_SCIAT_attributes.xlsx,2,Positief,Negatief, ,2, ,purple,blij,e,e,3,i,i,blank.png,,,0,0,0,0,1,8,18,1,,,,,,,,,,,,,,,,,,,,,,,,,,,,,,i,1,0.483774766908,None,0,,,50,F,19,64.1593364484,SCIAT IAT and likerts,2016_mrt_02_1040,
purple,white,"In deze taak zullen stimuli een voor een op het scherm verschijnen. Jouw taak bestaat erin om op de linkse (E) of rechtse (I) toets te duwen afhankelijk van de categorie waartoe elke stimulus behoort.  Er zijn drie mogelijke categorieen:

(1) POSITIEF
(2) NEGATIEF
(3) CHINESE SYMBOLEN

Welke categorieen aan welke knop zijn toegewezen, verschilt van fase tot fase. De categorieen die aan de linkerknop zijn toegewezen, zullen in de linker-bovenhoek van het scherm staan. De categorieen die aan de rechterknop zijn toegewezen, zullen in de rechter-bovenhoek van het scherm staan.

Probeer steeds zo snel mogelijk te antwoorden zonder te veel fouten te maken. Wanneer je een fout zou maken zal er een rood kruis verschijnen. Dit kruis zal blijven staan totdat je alsnog de juiste toets induwt.

Probeer steeds zo snel mogelijk te antwoorden zonder te veel fouten te maken.

Druk op E of I om verder te gaan.", , ,trials_SCIAT_attributes.xlsx,2,Positief,Negatief, ,2, ,purple,prettig,e,e,3,i,i,blank.png,,,0,0,0,0,1,9,19,3,,,,,,,,,,,,,,,,,,,,,,,,,,,,,,i,1,0.499518766534,None,0,,,50,F,19,64.1593364484,SCIAT IAT and likerts,2016_mrt_02_1040,
purple,white,"Dit is een fase met CHINESE SYMBOLEN, POSITIEF en NEGATIEF.

Probeer steeds zo snel mogelijk te antwoorden zonder te veel fouten te maken.

Druk op E of I om verder te gaan.",of, ,trials_SCIAT_both_B.xlsx,2,Positief,Negatief, ,2,Chinese symbolen,white, ,i,i,2,e,e,pic1.jpg,,,0,1,1,1,0,0,0,0,,,,,,,,,,,,,,,,,,,,,,,,,,,,,,e,1,0.733225575997,None,0,,,50,F,19,64.1593364484,SCIAT IAT and likerts,2016_mrt_02_1040,
purple,white,"Dit is een fase met CHINESE SYMBOLEN, POSITIEF en NEGATIEF.

Probeer steeds zo snel mogelijk te antwoorden zonder te veel fouten te maken.

Druk op E of I om verder te gaan.",of, ,trials_SCIAT_both_B.xlsx,2,Positief,Negatief, ,2,Chinese symbolen,purple,goed,e,e,3,i,i,blank.png,,,0,1,1,1,0,1,1,14,,,,,,,,,,,,,,,,,,,,,,,,,,,,,,i,1,0.577355317771,None,0,,,50,F,19,64.1593364484,SCIAT IAT and likerts,2016_mrt_02_1040,
purple,white,"Dit is een fase met CHINESE SYMBOLEN, POSITIEF en NEGATIEF.

Probeer steeds zo snel mogelijk te antwoorden zonder te veel fouten te maken.

Druk op E of I om verder te gaan.",of, ,trials_SCIAT_both_B.xlsx,2,Positief,Negatief, ,2,Chinese symbolen,white, ,i,i,2,e,e,pic2.jpg,,,0,1,1,1,0,2,2,6,,,,,,,,,,,,,,,,,,,,,,,,,,,,,,e,1,0.577567487257,None,0,,,50,F,19,64.1593364484,SCIAT IAT and likerts,2016_mrt_02_1040,
purple,white,"Dit is een fase met CHINESE SYMBOLEN, POSITIEF en NEGATIEF.

Probeer steeds zo snel mogelijk te antwoorden zonder te veel fouten te maken.

Druk op E of I om verder te gaan.",of, ,trials_SCIAT_both_B.xlsx,2,Positief,Negatief, ,2,Chinese symbolen,purple,pijn,i,i,4,e,e,blank.png,,,0,1,1,1,0,3,3,31,,,,,,,,,,,,,,,,,,,,,,,,,,,,,,e,1,0.530373023124,None,0,,,50,F,19,64.1593364484,SCIAT IAT and likerts,2016_mrt_02_1040,
purple,white,"Dit is een fase met CHINESE SYMBOLEN, POSITIEF en NEGATIEF.

Probeer steeds zo snel mogelijk te antwoorden zonder te veel fouten te maken.

Druk op E of I om verder te gaan.",of, ,trials_SCIAT_both_B.xlsx,2,Positief,Negatief, ,2,Chinese symbolen,purple,hatelijk,i,i,4,e,e,blank.png,,,0,1,1,1,0,4,4,29,,,,,,,,,,,,,,,,,,,,,,,,,,,,,,e,1,0.530372628011,None,0,,,50,F,19,64.1593364484,SCIAT IAT and likerts,2016_mrt_02_1040,
purple,white,"Dit is een fase met CHINESE SYMBOLEN, POSITIEF en NEGATIEF.

Probeer steeds zo snel mogelijk te antwoorden zonder te veel fouten te maken.

Druk op E of I om verder te gaan.",of, ,trials_SCIAT_both_B.xlsx,2,Positief,Negatief, ,2,Chinese symbolen,purple,blij,e,e,3,i,i,blank.png,,,0,1,1,1,0,5,5,21,,,,,,,,,,,,,,,,,,,,,,,,,,,,,,i,1,0.608497208217,None,0,,,50,F,19,64.1593364484,SCIAT IAT and likerts,2016_mrt_02_1040,
purple,white,"Dit is een fase met CHINESE SYMBOLEN, POSITIEF en NEGATIEF.

Probeer steeds zo snel mogelijk te antwoorden zonder te veel fouten te maken.

Druk op E of I om verder te gaan.",of, ,trials_SCIAT_both_B.xlsx,2,Positief,Negatief, ,2,Chinese symbolen,white, ,i,i,2,e,e,pic4.jpg,,,0,1,1,1,0,6,6,8,,,,,,,,,,,,,,,,,,,,,,,,,,,,,,e,1,0.60850036901,None,0,,,50,F,19,64.1593364484,SCIAT IAT and likerts,2016_mrt_02_1040,
purple,white,"Dit is een fase met CHINESE SYMBOLEN, POSITIEF en NEGATIEF.

Probeer steeds zo snel mogelijk te antwoorden zonder te veel fouten te maken.

Druk op E of I om verder te gaan.",of, ,trials_SCIAT_both_B.xlsx,2,Positief,Negatief, ,2,Chinese symbolen,purple,vriendelijk,e,e,3,i,i,blank.png,,,0,1,1,1,0,7,7,12,,,,,,,,,,,,,,,,,,,,,,,,,,,,,,i,1,0.561563906143,None,0,,,50,F,19,64.1593364484,SCIAT IAT and likerts,2016_mrt_02_1040,
purple,white,"Dit is een fase met CHINESE SYMBOLEN, POSITIEF en NEGATIEF.

Probeer steeds zo snel mogelijk te antwoorden zonder te veel fouten te maken.

Druk op E of I om verder te gaan.",of, ,trials_SCIAT_both_B.xlsx,2,Positief,Negatief, ,2,Chinese symbolen,purple,vriendelijk,e,e,3,i,i,blank.png,,,0,1,1,1,0,8,8,22,,,,,,,,,,,,,,,,,,,,,,,,,,,,,,i,1,0.499292373424,None,0,,,50,F,19,64.1593364484,SCIAT IAT and likerts,2016_mrt_02_1040,
purple,white,"Dit is een fase met CHINESE SYMBOLEN, POSITIEF en NEGATIEF.

Probeer steeds zo snel mogelijk te antwoorden zonder te veel fouten te maken.

Druk op E of I om verder te gaan.",of, ,trials_SCIAT_both_B.xlsx,2,Positief,Negatief, ,2,Chinese symbolen,white, ,i,i,2,e,e,pic5.jpg,,,0,1,1,1,0,9,9,4,,,,,,,,,,,,,,,,,,,,,,,,,,,,,,e,1,0.483798473026,None,0,,,50,F,19,64.1593364484,SCIAT IAT and likerts,2016_mrt_02_1040,
purple,white,"Dit is een fase met CHINESE SYMBOLEN, POSITIEF en NEGATIEF.

Probeer steeds zo snel mogelijk te antwoorden zonder te veel fouten te maken.

Druk op E of I om verder te gaan.",of, ,trials_SCIAT_both_B.xlsx,2,Positief,Negatief, ,2,Chinese symbolen,white, ,i,i,2,e,e,pic5.jpg,,,0,1,1,1,0,10,10,9,,,,,,,,,,,,,,,,,,,,,,,,,,,,,,e,1,0.421263802913,None,0,,,50,F,19,64.1593364484,SCIAT IAT and likerts,2016_mrt_02_1040,
purple,white,"Dit is een fase met CHINESE SYMBOLEN, POSITIEF en NEGATIEF.

Probeer steeds zo snel mogelijk te antwoorden zonder te veel fouten te maken.

Druk op E of I om verder te gaan.",of, ,trials_SCIAT_both_B.xlsx,2,Positief,Negatief, ,2,Chinese symbolen,white, ,i,i,2,e,e,pic3.jpg,,,0,1,1,1,0,11,11,2,,,,,,,,,,,,,,,,,,,,,,,,,,,,,,e,1,0.281048251432,None,0,,,50,F,19,64.1593364484,SCIAT IAT and likerts,2016_mrt_02_1040,
purple,white,"Dit is een fase met CHINESE SYMBOLEN, POSITIEF en NEGATIEF.

Probeer steeds zo snel mogelijk te antwoorden zonder te veel fouten te maken.

Druk op E of I om verder te gaan.",of, ,trials_SCIAT_both_B.xlsx,2,Positief,Negatief, ,2,Chinese symbolen,purple,geluk,e,e,3,i,i,blank.png,,,0,1,1,1,0,12,12,15,,,,,,,,,,,,,,,,,,,,,,,,,,,,,,i,1,0.514787459164,None,0,,,50,F,19,64.1593364484,SCIAT IAT and likerts,2016_mrt_02_1040,
purple,white,"Dit is een fase met CHINESE SYMBOLEN, POSITIEF en NEGATIEF.

Probeer steeds zo snel mogelijk te antwoorden zonder te veel fouten te maken.

Druk op E of I om verder te gaan.",of, ,trials_SCIAT_both_B.xlsx,2,Positief,Negatief, ,2,Chinese symbolen,purple,geluk,e,e,3,i,i,blank.png,,,0,1,1,1,0,13,13,20,,,,,,,,,,,,,,,,,,,,,,,,,,,,,,i,1,0.405642679776,None,0,,,50,F,19,64.1593364484,SCIAT IAT and likerts,2016_mrt_02_1040,
purple,white,"Dit is een fase met CHINESE SYMBOLEN, POSITIEF en NEGATIEF.

Probeer steeds zo snel mogelijk te antwoorden zonder te veel fouten te maken.

Druk op E of I om verder te gaan.",of, ,trials_SCIAT_both_B.xlsx,2,Positief,Negatief, ,2,Chinese symbolen,white, ,i,i,2,e,e,pic2.jpg,,,0,1,1,1,0,14,14,1,,,,,,,,,,,,,,,,,,,,,,,,,,,,,,e,1,0.390159052098,None,0,,,50,F,19,64.1593364484,SCIAT IAT and likerts,2016_mrt_02_1040,
purple,white,"Dit is een fase met CHINESE SYMBOLEN, POSITIEF en NEGATIEF.

Probeer steeds zo snel mogelijk te antwoorden zonder te veel fouten te maken.

Druk op E of I om verder te gaan.",of, ,trials_SCIAT_both_B.xlsx,2,Positief,Negatief, ,2,Chinese symbolen,purple,goed,e,e,3,i,i,blank.png,,,0,1,1,1,0,15,15,24,,,,,,,,,,,,,,,,,,,,,,,,,,,,,,i,1,0.499248912325,None,0,,,50,F,19,64.1593364484,SCIAT IAT and likerts,2016_mrt_02_1040,
purple,white,"Dit is een fase met CHINESE SYMBOLEN, POSITIEF en NEGATIEF.

Probeer steeds zo snel mogelijk te antwoorden zonder te veel fouten te maken.

Druk op E of I om verder te gaan.",of, ,trials_SCIAT_both_B.xlsx,2,Positief,Negatief, ,2,Chinese symbolen,purple,hatelijk,i,i,4,e,e,blank.png,,,0,1,1,1,0,16,16,34,,,,,,,,,,,,,,,,,,,,,,,,,,,,,,e,1,0.499235083698,None,0,,,50,F,19,64.1593364484,SCIAT IAT and likerts,2016_mrt_02_1040,
purple,white,"Dit is een fase met CHINESE SYMBOLEN, POSITIEF en NEGATIEF.

Probeer steeds zo snel mogelijk te antwoorden zonder te veel fouten te maken.

Druk op E of I om verder te gaan.",of, ,trials_SCIAT_both_B.xlsx,2,Positief,Negatief, ,2,Chinese symbolen,purple,prettig,e,e,3,i,i,blank.png,,,0,1,1,1,0,17,17,23,,,,,,,,,,,,,,,,,,,,,,,,,,,,,,i,1,0.530439005001,None,0,,,50,F,19,64.1593364484,SCIAT IAT and likerts,2016_mrt_02_1040,
purple,white,"Dit is een fase met CHINESE SYMBOLEN, POSITIEF en NEGATIEF.

Probeer steeds zo snel mogelijk te antwoorden zonder te veel fouten te maken.

Druk op E of I om verder te gaan.",of, ,trials_SCIAT_both_B.xlsx,2,Positief,Negatief, ,2,Chinese symbolen,purple,blij,e,e,3,i,i,blank.png,,,0,1,1,1,0,18,18,16,,,,,,,,,,,,,,,,,,,,,,,,,,,,,,i,1,0.546095687198,None,0,,,50,F,19,64.1593364484,SCIAT IAT and likerts,2016_mrt_02_1040,
purple,white,"Dit is een fase met CHINESE SYMBOLEN, POSITIEF en NEGATIEF.

Probeer steeds zo snel mogelijk te antwoorden zonder te veel fouten te maken.

Druk op E of I om verder te gaan.",of, ,trials_SCIAT_both_B.xlsx,2,Positief,Negatief, ,2,Chinese symbolen,purple,goed,e,e,3,i,i,blank.png,,,0,1,1,1,0,19,19,19,,,,,,,,,,,,,,,,,,,,,,,,,,,,,,i,1,0.624058671063,None,0,,,50,F,19,64.1593364484,SCIAT IAT and likerts,2016_mrt_02_1040,
purple,white,"Dit is een fase met CHINESE SYMBOLEN, POSITIEF en NEGATIEF.

Probeer steeds zo snel mogelijk te antwoorden zonder te veel fouten te maken.

Druk op E of I om verder te gaan.",of, ,trials_SCIAT_both_B.xlsx,2,Positief,Negatief, ,2,Chinese symbolen,purple,prettig,e,e,3,i,i,blank.png,,,0,1,1,1,0,20,20,18,,,,,,,,,,,,,,,,,,,,,,,,,,,,,,i,1,0.48356338765,None,0,,,50,F,19,64.1593364484,SCIAT IAT and likerts,2016_mrt_02_1040,
purple,white,"Dit is een fase met CHINESE SYMBOLEN, POSITIEF en NEGATIEF.

Probeer steeds zo snel mogelijk te antwoorden zonder te veel fouten te maken.

Druk op E of I om verder te gaan.",of, ,trials_SCIAT_both_B.xlsx,2,Positief,Negatief, ,2,Chinese symbolen,white, ,i,i,2,e,e,pic1.jpg,,,0,1,1,1,0,21,21,5,,,,,,,,,,,,,,,,,,,,,,,,,,,,,,e,1,0.436944981338,None,0,,,50,F,19,64.1593364484,SCIAT IAT and likerts,2016_mrt_02_1040,
purple,white,"Dit is een fase met CHINESE SYMBOLEN, POSITIEF en NEGATIEF.

Probeer steeds zo snel mogelijk te antwoorden zonder te veel fouten te maken.

Druk op E of I om verder te gaan.",of, ,trials_SCIAT_both_B.xlsx,2,Positief,Negatief, ,2,Chinese symbolen,purple,vijandig,i,i,4,e,e,blank.png,,,0,1,1,1,0,22,22,28,,,,,,,,,,,,,,,,,,,,,,,,,,,,,,e,1,0.639679793967,None,0,,,50,F,19,64.1593364484,SCIAT IAT and likerts,2016_mrt_02_1040,
purple,white,"Dit is een fase met CHINESE SYMBOLEN, POSITIEF en NEGATIEF.

Probeer steeds zo snel mogelijk te antwoorden zonder te veel fouten te maken.

Druk op E of I om verder te gaan.",of, ,trials_SCIAT_both_B.xlsx,2,Positief,Negatief, ,2,Chinese symbolen,purple,prettig,e,e,3,i,i,blank.png,,,0,1,1,1,0,23,23,13,,,,,,,,,,,,,,,,,,,,,,,,,,,,,,i,1,1.09202582703,e,1,0.390037755948,,50,F,19,64.1593364484,SCIAT IAT and likerts,2016_mrt_02_1040,
purple,white,"Dit is een fase met CHINESE SYMBOLEN, POSITIEF en NEGATIEF.

Probeer steeds zo snel mogelijk te antwoorden zonder te veel fouten te maken.

Druk op E of I om verder te gaan.",of, ,trials_SCIAT_both_B.xlsx,2,Positief,Negatief, ,2,Chinese symbolen,purple,gemeen,i,i,4,e,e,blank.png,,,0,1,1,1,0,24,24,27,,,,,,,,,,,,,,,,,,,,,,,,,,,,,,e,1,0.655337661621,None,0,,,50,F,19,64.1593364484,SCIAT IAT and likerts,2016_mrt_02_1040,
purple,white,"Dit is een fase met CHINESE SYMBOLEN, POSITIEF en NEGATIEF.

Probeer steeds zo snel mogelijk te antwoorden zonder te veel fouten te maken.

Druk op E of I om verder te gaan.",of, ,trials_SCIAT_both_B.xlsx,2,Positief,Negatief, ,2,Chinese symbolen,white, ,i,i,2,e,e,pic3.jpg,,,0,1,1,1,0,25,25,7,,,,,,,,,,,,,,,,,,,,,,,,,,,,,,e,1,0.514654705068,None,0,,,50,F,19,64.1593364484,SCIAT IAT and likerts,2016_mrt_02_1040,
purple,white,"Dit is een fase met CHINESE SYMBOLEN, POSITIEF en NEGATIEF.

Probeer steeds zo snel mogelijk te antwoorden zonder te veel fouten te maken.

Druk op E of I om verder te gaan.",of, ,trials_SCIAT_both_B.xlsx,2,Positief,Negatief, ,2,Chinese symbolen,purple,walging,i,i,4,e,e,blank.png,,,0,1,1,1,0,26,26,30,,,,,,,,,,,,,,,,,,,,,,,,,,,,,,e,1,0.811405865592,None,0,,,50,F,19,64.1593364484,SCIAT IAT and likerts,2016_mrt_02_1040,
purple,white,"Dit is een fase met CHINESE SYMBOLEN, POSITIEF en NEGATIEF.

Probeer steeds zo snel mogelijk te antwoorden zonder te veel fouten te maken.

Druk op E of I om verder te gaan.",of, ,trials_SCIAT_both_B.xlsx,2,Positief,Negatief, ,2,Chinese symbolen,purple,pijn,i,i,4,e,e,blank.png,,,0,1,1,1,0,27,27,26,,,,,,,,,,,,,,,,,,,,,,,,,,,,,,e,1,2.02802335517,i,1,0.702009801636,,50,F,19,64.1593364484,SCIAT IAT and likerts,2016_mrt_02_1040,
purple,white,"Dit is een fase met CHINESE SYMBOLEN, POSITIEF en NEGATIEF.

Probeer steeds zo snel mogelijk te antwoorden zonder te veel fouten te maken.

Druk op E of I om verder te gaan.",of, ,trials_SCIAT_both_B.xlsx,2,Positief,Negatief, ,2,Chinese symbolen,purple,gemeen,i,i,4,e,e,blank.png,,,0,1,1,1,0,28,28,32,,,,,,,,,,,,,,,,,,,,,,,,,,,,,,e,1,0.873522913549,None,0,,,50,F,19,64.1593364484,SCIAT IAT and likerts,2016_mrt_02_1040,
purple,white,"Dit is een fase met CHINESE SYMBOLEN, POSITIEF en NEGATIEF.

Probeer steeds zo snel mogelijk te antwoorden zonder te veel fouten te maken.

Druk op E of I om verder te gaan.",of, ,trials_SCIAT_both_B.xlsx,2,Positief,Negatief, ,2,Chinese symbolen,purple,blij,e,e,3,i,i,blank.png,,,0,1,1,1,0,29,29,11,,,,,,,,,,,,,,,,,,,,,,,,,,,,,,i,1,0.639639098546,None,0,,,50,F,19,64.1593364484,SCIAT IAT and likerts,2016_mrt_02_1040,
purple,white,"Dit is een fase met CHINESE SYMBOLEN, POSITIEF en NEGATIEF.

Probeer steeds zo snel mogelijk te antwoorden zonder te veel fouten te maken.

Druk op E of I om verder te gaan.",of, ,trials_SCIAT_both_B.xlsx,2,Positief,Negatief, ,2,Chinese symbolen,purple,vijandig,i,i,4,e,e,blank.png,,,0,1,1,1,0,30,30,33,,,,,,,,,,,,,,,,,,,,,,,,,,,,,,e,1,0.920469649136,None,0,,,50,F,19,64.1593364484,SCIAT IAT and likerts,2016_mrt_02_1040,
purple,white,"Dit is een fase met CHINESE SYMBOLEN, POSITIEF en NEGATIEF.

Probeer steeds zo snel mogelijk te antwoorden zonder te veel fouten te maken.

Druk op E of I om verder te gaan.",of, ,trials_SCIAT_both_B.xlsx,2,Positief,Negatief, ,2,Chinese symbolen,purple,geluk,e,e,3,i,i,blank.png,,,0,1,1,1,0,31,31,10,,,,,,,,,,,,,,,,,,,,,,,,,,,,,,i,1,0.62395199365,None,0,,,50,F,19,64.1593364484,SCIAT IAT and likerts,2016_mrt_02_1040,
purple,white,"Dit is een fase met CHINESE SYMBOLEN, POSITIEF en NEGATIEF.

Probeer steeds zo snel mogelijk te antwoorden zonder te veel fouten te maken.

Druk op E of I om verder te gaan.",of, ,trials_SCIAT_both_B.xlsx,2,Positief,Negatief, ,2,Chinese symbolen,white, ,i,i,2,e,e,pic4.jpg,,,0,1,1,1,0,32,32,3,,,,,,,,,,,,,,,,,,,,,,,,,,,,,,e,1,0.577256937628,None,0,,,50,F,19,64.1593364484,SCIAT IAT and likerts,2016_mrt_02_1040,
purple,white,"Dit is een fase met CHINESE SYMBOLEN, POSITIEF en NEGATIEF.

Probeer steeds zo snel mogelijk te antwoorden zonder te veel fouten te maken.

Druk op E of I om verder te gaan.",of, ,trials_SCIAT_both_B.xlsx,2,Positief,Negatief, ,2,Chinese symbolen,purple,walging,i,i,4,e,e,blank.png,,,0,1,1,1,0,33,33,25,,,,,,,,,,,,,,,,,,,,,,,,,,,,,,e,1,0.811293656705,None,0,,,50,F,19,64.1593364484,SCIAT IAT and likerts,2016_mrt_02_1040,
purple,white,"Dit is een fase met CHINESE SYMBOLEN, POSITIEF en NEGATIEF.

Probeer steeds zo snel mogelijk te antwoorden zonder te veel fouten te maken.

Druk op E of I om verder te gaan.",of, ,trials_SCIAT_both_B.xlsx,2,Positief,Negatief, ,2,Chinese symbolen,purple,vriendelijk,e,e,3,i,i,blank.png,,,0,1,1,1,0,34,34,17,,,,,,,,,,,,,,,,,,,,,,,,,,,,,,i,1,0.561721156468,None,0,,,50,F,19,64.1593364484,SCIAT IAT and likerts,2016_mrt_02_1040,
purple,white,"Dit is een fase met CHINESE SYMBOLEN, POSITIEF en NEGATIEF.

Probeer steeds zo snel mogelijk te antwoorden zonder te veel fouten te maken.

Druk op E of I om verder te gaan.",of, ,trials_SCIAT_both_B.xlsx,2,Positief,Negatief, ,2,Chinese symbolen,white, ,i,i,2,e,e,pic4.jpg,,,0,1,1,1,1,0,35,3,,,,,,,,,,,,,,,,,,,,,,,,,,,,,,e,1,0.499244566192,None,0,,,50,F,19,64.1593364484,SCIAT IAT and likerts,2016_mrt_02_1040,
purple,white,"Dit is een fase met CHINESE SYMBOLEN, POSITIEF en NEGATIEF.

Probeer steeds zo snel mogelijk te antwoorden zonder te veel fouten te maken.

Druk op E of I om verder te gaan.",of, ,trials_SCIAT_both_B.xlsx,2,Positief,Negatief, ,2,Chinese symbolen,purple,vriendelijk,e,e,3,i,i,blank.png,,,0,1,1,1,1,1,36,17,,,,,,,,,,,,,,,,,,,,,,,,,,,,,,i,1,1.15446725313,None,0,,,50,F,19,64.1593364484,SCIAT IAT and likerts,2016_mrt_02_1040,
purple,white,"Dit is een fase met CHINESE SYMBOLEN, POSITIEF en NEGATIEF.

Probeer steeds zo snel mogelijk te antwoorden zonder te veel fouten te maken.

Druk op E of I om verder te gaan.",of, ,trials_SCIAT_both_B.xlsx,2,Positief,Negatief, ,2,Chinese symbolen,purple,vriendelijk,e,e,3,i,i,blank.png,,,0,1,1,1,1,2,37,12,,,,,,,,,,,,,,,,,,,,,,,,,,,,,,i,1,0.546048670192,None,0,,,50,F,19,64.1593364484,SCIAT IAT and likerts,2016_mrt_02_1040,
purple,white,"Dit is een fase met CHINESE SYMBOLEN, POSITIEF en NEGATIEF.

Probeer steeds zo snel mogelijk te antwoorden zonder te veel fouten te maken.

Druk op E of I om verder te gaan.",of, ,trials_SCIAT_both_B.xlsx,2,Positief,Negatief, ,2,Chinese symbolen,purple,goed,e,e,3,i,i,blank.png,,,0,1,1,1,1,3,38,24,,,,,,,,,,,,,,,,,,,,,,,,,,,,,,i,1,0.63967939897,None,0,,,50,F,19,64.1593364484,SCIAT IAT and likerts,2016_mrt_02_1040,
purple,white,"Dit is een fase met CHINESE SYMBOLEN, POSITIEF en NEGATIEF.

Probeer steeds zo snel mogelijk te antwoorden zonder te veel fouten te maken.

Druk op E of I om verder te gaan.",of, ,trials_SCIAT_both_B.xlsx,2,Positief,Negatief, ,2,Chinese symbolen,white, ,i,i,2,e,e,pic1.jpg,,,0,1,1,1,1,4,39,0,,,,,,,,,,,,,,,,,,,,,,,,,,,,,,e,1,0.483819413348,None,0,,,50,F,19,64.1593364484,SCIAT IAT and likerts,2016_mrt_02_1040,
purple,white,"Dit is een fase met CHINESE SYMBOLEN, POSITIEF en NEGATIEF.

Probeer steeds zo snel mogelijk te antwoorden zonder te veel fouten te maken.

Druk op E of I om verder te gaan.",of, ,trials_SCIAT_both_B.xlsx,2,Positief,Negatief, ,2,Chinese symbolen,purple,hatelijk,i,i,4,e,e,blank.png,,,0,1,1,1,1,5,40,29,,,,,,,,,,,,,,,,,,,,,,,,,,,,,,e,1,0.936155963922,None,0,,,50,F,19,64.1593364484,SCIAT IAT and likerts,2016_mrt_02_1040,
purple,white,"Dit is een fase met CHINESE SYMBOLEN, POSITIEF en NEGATIEF.

Probeer steeds zo snel mogelijk te antwoorden zonder te veel fouten te maken.

Druk op E of I om verder te gaan.",of, ,trials_SCIAT_both_B.xlsx,2,Positief,Negatief, ,2,Chinese symbolen,purple,gemeen,i,i,4,e,e,blank.png,,,0,1,1,1,1,6,41,32,,,,,,,,,,,,,,,,,,,,,,,,,,,,,,e,1,0.577376653207,None,0,,,50,F,19,64.1593364484,SCIAT IAT and likerts,2016_mrt_02_1040,
purple,white,"Dit is een fase met CHINESE SYMBOLEN, POSITIEF en NEGATIEF.

Probeer steeds zo snel mogelijk te antwoorden zonder te veel fouten te maken.

Druk op E of I om verder te gaan.",of, ,trials_SCIAT_both_B.xlsx,2,Positief,Negatief, ,2,Chinese symbolen,white, ,i,i,2,e,e,pic1.jpg,,,0,1,1,1,1,7,42,5,,,,,,,,,,,,,,,,,,,,,,,,,,,,,,e,1,0.499149741838,None,0,,,50,F,19,64.1593364484,SCIAT IAT and likerts,2016_mrt_02_1040,
purple,white,"Dit is een fase met CHINESE SYMBOLEN, POSITIEF en NEGATIEF.

Probeer steeds zo snel mogelijk te antwoorden zonder te veel fouten te maken.

Druk op E of I om verder te gaan.",of, ,trials_SCIAT_both_B.xlsx,2,Positief,Negatief, ,2,Chinese symbolen,purple,vijandig,i,i,4,e,e,blank.png,,,0,1,1,1,1,8,43,33,,,,,,,,,,,,,,,,,,,,,,,,,,,,,,e,1,0.546130456147,None,0,,,50,F,19,64.1593364484,SCIAT IAT and likerts,2016_mrt_02_1040,
purple,white,"Dit is een fase met CHINESE SYMBOLEN, POSITIEF en NEGATIEF.

Probeer steeds zo snel mogelijk te antwoorden zonder te veel fouten te maken.

Druk op E of I om verder te gaan.",of, ,trials_SCIAT_both_B.xlsx,2,Positief,Negatief, ,2,Chinese symbolen,purple,vijandig,i,i,4,e,e,blank.png,,,0,1,1,1,1,9,44,28,,,,,,,,,,,,,,,,,,,,,,,,,,,,,,e,1,0.421258666553,None,0,,,50,F,19,64.1593364484,SCIAT IAT and likerts,2016_mrt_02_1040,
purple,white,"Dit is een fase met CHINESE SYMBOLEN, POSITIEF en NEGATIEF.

Probeer steeds zo snel mogelijk te antwoorden zonder te veel fouten te maken.

Druk op E of I om verder te gaan.",of, ,trials_SCIAT_both_B.xlsx,2,Positief,Negatief, ,2,Chinese symbolen,white, ,i,i,2,e,e,pic2.jpg,,,0,1,1,1,1,10,45,1,,,,,,,,,,,,,,,,,,,,,,,,,,,,,,e,1,0.483671250404,None,0,,,50,F,19,64.1593364484,SCIAT IAT and likerts,2016_mrt_02_1040,
purple,white,"Dit is een fase met CHINESE SYMBOLEN, POSITIEF en NEGATIEF.

Probeer steeds zo snel mogelijk te antwoorden zonder te veel fouten te maken.

Druk op E of I om verder te gaan.",of, ,trials_SCIAT_both_B.xlsx,2,Positief,Negatief, ,2,Chinese symbolen,purple,geluk,e,e,3,i,i,blank.png,,,0,1,1,1,1,11,46,10,,,,,,,,,,,,,,,,,,,,,,,,,,,,,,i,1,1.43529464293,e,1,0.421247208607,,50,F,19,64.1593364484,SCIAT IAT and likerts,2016_mrt_02_1040,
purple,white,"Dit is een fase met CHINESE SYMBOLEN, POSITIEF en NEGATIEF.

Probeer steeds zo snel mogelijk te antwoorden zonder te veel fouten te maken.

Druk op E of I om verder te gaan.",of, ,trials_SCIAT_both_B.xlsx,2,Positief,Negatief, ,2,Chinese symbolen,purple,walging,i,i,4,e,e,blank.png,,,0,1,1,1,1,12,47,25,,,,,,,,,,,,,,,,,,,,,,,,,,,,,,e,1,0.717677941779,None,0,,,50,F,19,64.1593364484,SCIAT IAT and likerts,2016_mrt_02_1040,
purple,white,"Dit is een fase met CHINESE SYMBOLEN, POSITIEF en NEGATIEF.

Probeer steeds zo snel mogelijk te antwoorden zonder te veel fouten te maken.

Druk op E of I om verder te gaan.",of, ,trials_SCIAT_both_B.xlsx,2,Positief,Negatief, ,2,Chinese symbolen,white, ,i,i,2,e,e,pic5.jpg,,,0,1,1,1,1,13,48,4,,,,,,,,,,,,,,,,,,,,,,,,,,,,,,e,1,0.499124850379,None,0,,,50,F,19,64.1593364484,SCIAT IAT and likerts,2016_mrt_02_1040,
purple,white,"Dit is een fase met CHINESE SYMBOLEN, POSITIEF en NEGATIEF.

Probeer steeds zo snel mogelijk te antwoorden zonder te veel fouten te maken.

Druk op E of I om verder te gaan.",of, ,trials_SCIAT_both_B.xlsx,2,Positief,Negatief, ,2,Chinese symbolen,purple,gemeen,i,i,4,e,e,blank.png,,,0,1,1,1,1,14,49,27,,,,,,,,,,,,,,,,,,,,,,,,,,,,,,e,1,0.795552422875,None,0,,,50,F,19,64.1593364484,SCIAT IAT and likerts,2016_mrt_02_1040,
purple,white,"Dit is een fase met CHINESE SYMBOLEN, POSITIEF en NEGATIEF.

Probeer steeds zo snel mogelijk te antwoorden zonder te veel fouten te maken.

Druk op E of I om verder te gaan.",of, ,trials_SCIAT_both_B.xlsx,2,Positief,Negatief, ,2,Chinese symbolen,white, ,i,i,2,e,e,pic3.jpg,,,0,1,1,1,1,15,50,2,,,,,,,,,,,,,,,,,,,,,,,,,,,,,,e,1,0.577247850248,None,0,,,50,F,19,64.1593364484,SCIAT IAT and likerts,2016_mrt_02_1040,
purple,white,"Dit is een fase met CHINESE SYMBOLEN, POSITIEF en NEGATIEF.

Probeer steeds zo snel mogelijk te antwoorden zonder te veel fouten te maken.

Druk op E of I om verder te gaan.",of, ,trials_SCIAT_both_B.xlsx,2,Positief,Negatief, ,2,Chinese symbolen,purple,blij,e,e,3,i,i,blank.png,,,0,1,1,1,1,16,51,16,,,,,,,,,,,,,,,,,,,,,,,,,,,,,,i,1,0.764339414192,None,0,,,50,F,19,64.1593364484,SCIAT IAT and likerts,2016_mrt_02_1040,
purple,white,"Dit is een fase met CHINESE SYMBOLEN, POSITIEF en NEGATIEF.

Probeer steeds zo snel mogelijk te antwoorden zonder te veel fouten te maken.

Druk op E of I om verder te gaan.",of, ,trials_SCIAT_both_B.xlsx,2,Positief,Negatief, ,2,Chinese symbolen,purple,goed,e,e,3,i,i,blank.png,,,0,1,1,1,1,17,52,19,,,,,,,,,,,,,,,,,,,,,,,,,,,,,,i,1,0.53052355675,None,0,,,50,F,19,64.1593364484,SCIAT IAT and likerts,2016_mrt_02_1040,
purple,white,"Dit is een fase met CHINESE SYMBOLEN, POSITIEF en NEGATIEF.

Probeer steeds zo snel mogelijk te antwoorden zonder te veel fouten te maken.

Druk op E of I om verder te gaan.",of, ,trials_SCIAT_both_B.xlsx,2,Positief,Negatief, ,2,Chinese symbolen,purple,pijn,i,i,4,e,e,blank.png,,,0,1,1,1,1,18,53,31,,,,,,,,,,,,,,,,,,,,,,,,,,,,,,e,1,0.608472316875,None,0,,,50,F,19,64.1593364484,SCIAT IAT and likerts,2016_mrt_02_1040,
purple,white,"Dit is een fase met CHINESE SYMBOLEN, POSITIEF en NEGATIEF.

Probeer steeds zo snel mogelijk te antwoorden zonder te veel fouten te maken.

Druk op E of I om verder te gaan.",of, ,trials_SCIAT_both_B.xlsx,2,Positief,Negatief, ,2,Chinese symbolen,purple,prettig,e,e,3,i,i,blank.png,,,0,1,1,1,1,19,54,18,,,,,,,,,,,,,,,,,,,,,,,,,,,,,,i,1,0.592945622979,None,0,,,50,F,19,64.1593364484,SCIAT IAT and likerts,2016_mrt_02_1040,
purple,white,"Dit is een fase met CHINESE SYMBOLEN, POSITIEF en NEGATIEF.

Probeer steeds zo snel mogelijk te antwoorden zonder te veel fouten te maken.

Druk op E of I om verder te gaan.",of, ,trials_SCIAT_both_B.xlsx,2,Positief,Negatief, ,2,Chinese symbolen,white, ,i,i,2,e,e,pic4.jpg,,,0,1,1,1,1,20,55,8,,,,,,,,,,,,,,,,,,,,,,,,,,,,,,e,1,0.499441721709,None,0,,,50,F,19,64.1593364484,SCIAT IAT and likerts,2016_mrt_02_1040,
purple,white,"Dit is een fase met CHINESE SYMBOLEN, POSITIEF en NEGATIEF.

Probeer steeds zo snel mogelijk te antwoorden zonder te veel fouten te maken.

Druk op E of I om verder te gaan.",of, ,trials_SCIAT_both_B.xlsx,2,Positief,Negatief, ,2,Chinese symbolen,purple,prettig,e,e,3,i,i,blank.png,,,0,1,1,1,1,21,56,13,,,,,,,,,,,,,,,,,,,,,,,,,,,,,,i,1,0.998473723419,None,0,,,50,F,19,64.1593364484,SCIAT IAT and likerts,2016_mrt_02_1040,
purple,white,"Dit is een fase met CHINESE SYMBOLEN, POSITIEF en NEGATIEF.

Probeer steeds zo snel mogelijk te antwoorden zonder te veel fouten te maken.

Druk op E of I om verder te gaan.",of, ,trials_SCIAT_both_B.xlsx,2,Positief,Negatief, ,2,Chinese symbolen,white, ,i,i,2,e,e,pic3.jpg,,,0,1,1,1,1,22,57,7,,,,,,,,,,,,,,,,,,,,,,,,,,,,,,e,1,0.514909545425,None,0,,,50,F,19,64.1593364484,SCIAT IAT and likerts,2016_mrt_02_1040,
purple,white,"Dit is een fase met CHINESE SYMBOLEN, POSITIEF en NEGATIEF.

Probeer steeds zo snel mogelijk te antwoorden zonder te veel fouten te maken.

Druk op E of I om verder te gaan.",of, ,trials_SCIAT_both_B.xlsx,2,Positief,Negatief, ,2,Chinese symbolen,white, ,i,i,2,e,e,pic5.jpg,,,0,1,1,1,1,23,58,9,,,,,,,,,,,,,,,,,,,,,,,,,,,,,,e,1,0.530505777104,None,0,,,50,F,19,64.1593364484,SCIAT IAT and likerts,2016_mrt_02_1040,
purple,white,"Dit is een fase met CHINESE SYMBOLEN, POSITIEF en NEGATIEF.

Probeer steeds zo snel mogelijk te antwoorden zonder te veel fouten te maken.

Druk op E of I om verder te gaan.",of, ,trials_SCIAT_both_B.xlsx,2,Positief,Negatief, ,2,Chinese symbolen,purple,walging,i,i,4,e,e,blank.png,,,0,1,1,1,1,24,59,30,,,,,,,,,,,,,,,,,,,,,,,,,,,,,,e,1,0.655222687055,None,0,,,50,F,19,64.1593364484,SCIAT IAT and likerts,2016_mrt_02_1040,
purple,white,"Dit is een fase met CHINESE SYMBOLEN, POSITIEF en NEGATIEF.

Probeer steeds zo snel mogelijk te antwoorden zonder te veel fouten te maken.

Druk op E of I om verder te gaan.",of, ,trials_SCIAT_both_B.xlsx,2,Positief,Negatief, ,2,Chinese symbolen,purple,prettig,e,e,3,i,i,blank.png,,,0,1,1,1,1,25,60,23,,,,,,,,,,,,,,,,,,,,,,,,,,,,,,i,1,0.702167842304,None,0,,,50,F,19,64.1593364484,SCIAT IAT and likerts,2016_mrt_02_1040,
purple,white,"Dit is een fase met CHINESE SYMBOLEN, POSITIEF en NEGATIEF.

Probeer steeds zo snel mogelijk te antwoorden zonder te veel fouten te maken.

Druk op E of I om verder te gaan.",of, ,trials_SCIAT_both_B.xlsx,2,Positief,Negatief, ,2,Chinese symbolen,purple,pijn,i,i,4,e,e,blank.png,,,0,1,1,1,1,26,61,26,,,,,,,,,,,,,,,,,,,,,,,,,,,,,,e,1,0.780060893041,None,0,,,50,F,19,64.1593364484,SCIAT IAT and likerts,2016_mrt_02_1040,
purple,white,"Dit is een fase met CHINESE SYMBOLEN, POSITIEF en NEGATIEF.

Probeer steeds zo snel mogelijk te antwoorden zonder te veel fouten te maken.

Druk op E of I om verder te gaan.",of, ,trials_SCIAT_both_B.xlsx,2,Positief,Negatief, ,2,Chinese symbolen,purple,geluk,e,e,3,i,i,blank.png,,,0,1,1,1,1,27,62,20,,,,,,,,,,,,,,,,,,,,,,,,,,,,,,i,1,0.733266271534,None,0,,,50,F,19,64.1593364484,SCIAT IAT and likerts,2016_mrt_02_1040,
purple,white,"Dit is een fase met CHINESE SYMBOLEN, POSITIEF en NEGATIEF.

Probeer steeds zo snel mogelijk te antwoorden zonder te veel fouten te maken.

Druk op E of I om verder te gaan.",of, ,trials_SCIAT_both_B.xlsx,2,Positief,Negatief, ,2,Chinese symbolen,purple,geluk,e,e,3,i,i,blank.png,,,0,1,1,1,1,28,63,15,,,,,,,,,,,,,,,,,,,,,,,,,,,,,,i,1,0.54612215911,None,0,,,50,F,19,64.1593364484,SCIAT IAT and likerts,2016_mrt_02_1040,
purple,white,"Dit is een fase met CHINESE SYMBOLEN, POSITIEF en NEGATIEF.

Probeer steeds zo snel mogelijk te antwoorden zonder te veel fouten te maken.

Druk op E of I om verder te gaan.",of, ,trials_SCIAT_both_B.xlsx,2,Positief,Negatief, ,2,Chinese symbolen,white, ,i,i,2,e,e,pic2.jpg,,,0,1,1,1,1,29,64,6,,,,,,,,,,,,,,,,,,,,,,,,,,,,,,e,1,0.436906656483,None,0,,,50,F,19,64.1593364484,SCIAT IAT and likerts,2016_mrt_02_1040,
purple,white,"Dit is een fase met CHINESE SYMBOLEN, POSITIEF en NEGATIEF.

Probeer steeds zo snel mogelijk te antwoorden zonder te veel fouten te maken.

Druk op E of I om verder te gaan.",of, ,trials_SCIAT_both_B.xlsx,2,Positief,Negatief, ,2,Chinese symbolen,purple,goed,e,e,3,i,i,blank.png,,,0,1,1,1,1,30,65,14,,,,,,,,,,,,,,,,,,,,,,,,,,,,,,i,1,0.57730869588,None,0,,,50,F,19,64.1593364484,SCIAT IAT and likerts,2016_mrt_02_1040,
purple,white,"Dit is een fase met CHINESE SYMBOLEN, POSITIEF en NEGATIEF.

Probeer steeds zo snel mogelijk te antwoorden zonder te veel fouten te maken.

Druk op E of I om verder te gaan.",of, ,trials_SCIAT_both_B.xlsx,2,Positief,Negatief, ,2,Chinese symbolen,purple,vriendelijk,e,e,3,i,i,blank.png,,,0,1,1,1,1,31,66,22,,,,,,,,,,,,,,,,,,,,,,,,,,,,,,i,1,0.795665816986,None,0,,,50,F,19,64.1593364484,SCIAT IAT and likerts,2016_mrt_02_1040,
purple,white,"Dit is een fase met CHINESE SYMBOLEN, POSITIEF en NEGATIEF.

Probeer steeds zo snel mogelijk te antwoorden zonder te veel fouten te maken.

Druk op E of I om verder te gaan.",of, ,trials_SCIAT_both_B.xlsx,2,Positief,Negatief, ,2,Chinese symbolen,purple,blij,e,e,3,i,i,blank.png,,,0,1,1,1,1,32,67,11,,,,,,,,,,,,,,,,,,,,,,,,,,,,,,i,1,0.608453747118,None,0,,,50,F,19,64.1593364484,SCIAT IAT and likerts,2016_mrt_02_1040,
purple,white,"Dit is een fase met CHINESE SYMBOLEN, POSITIEF en NEGATIEF.

Probeer steeds zo snel mogelijk te antwoorden zonder te veel fouten te maken.

Druk op E of I om verder te gaan.",of, ,trials_SCIAT_both_B.xlsx,2,Positief,Negatief, ,2,Chinese symbolen,purple,blij,e,e,3,i,i,blank.png,,,0,1,1,1,1,33,68,21,,,,,,,,,,,,,,,,,,,,,,,,,,,,,,i,1,0.436896383879,None,0,,,50,F,19,64.1593364484,SCIAT IAT and likerts,2016_mrt_02_1040,
purple,white,"Dit is een fase met CHINESE SYMBOLEN, POSITIEF en NEGATIEF.

Probeer steeds zo snel mogelijk te antwoorden zonder te veel fouten te maken.

Druk op E of I om verder te gaan.",of, ,trials_SCIAT_both_B.xlsx,2,Positief,Negatief, ,2,Chinese symbolen,purple,hatelijk,i,i,4,e,e,blank.png,,,0,1,1,1,1,34,69,34,,,,,,,,,,,,,,,,,,,,,,,,,,,,,,e,1,0.686412779731,None,0,,,50,F,19,64.1593364484,SCIAT IAT and likerts,2016_mrt_02_1040,
purple,white,"Dit is een fase met CHINESE SYMBOLEN, POSITIEF en NEGATIEF.

** Opgepast, de responsen werden omgewisseld! **

Probeer steeds zo snel mogelijk te antwoorden zonder te veel fouten te maken.

Druk op E of I om verder te gaan.", ,of,trials_SCIAT_both_A.xlsx,2,Positief,Negatief,Chinese symbolen,2, ,white, ,e,e,2,i,i,pic5.jpg,,,0,2,2,2,0,0,0,9,,,,,,,,,,,,,,,,,,,,,,,,,,,,,,i,1,0.764624677366,None,0,,,50,F,19,64.1593364484,SCIAT IAT and likerts,2016_mrt_02_1040,
purple,white,"Dit is een fase met CHINESE SYMBOLEN, POSITIEF en NEGATIEF.

** Opgepast, de responsen werden omgewisseld! **

Probeer steeds zo snel mogelijk te antwoorden zonder te veel fouten te maken.

Druk op E of I om verder te gaan.", ,of,trials_SCIAT_both_A.xlsx,2,Positief,Negatief,Chinese symbolen,2, ,purple,vriendelijk,e,e,3,i,i,blank.png,,,0,2,2,2,0,1,1,12,,,,,,,,,,,,,,,,,,,,,,,,,,,,,,i,1,0.530516840052,None,0,,,50,F,19,64.1593364484,SCIAT IAT and likerts,2016_mrt_02_1040,
purple,white,"Dit is een fase met CHINESE SYMBOLEN, POSITIEF en NEGATIEF.

** Opgepast, de responsen werden omgewisseld! **

Probeer steeds zo snel mogelijk te antwoorden zonder te veel fouten te maken.

Druk op E of I om verder te gaan.", ,of,trials_SCIAT_both_A.xlsx,2,Positief,Negatief,Chinese symbolen,2, ,white, ,e,e,2,i,i,pic4.jpg,,,0,2,2,2,0,2,2,3,,,,,,,,,,,,,,,,,,,,,,,,,,,,,,i,1,0.452518297243,None,0,,,50,F,19,64.1593364484,SCIAT IAT and likerts,2016_mrt_02_1040,
purple,white,"Dit is een fase met CHINESE SYMBOLEN, POSITIEF en NEGATIEF.

** Opgepast, de responsen werden omgewisseld! **

Probeer steeds zo snel mogelijk te antwoorden zonder te veel fouten te maken.

Druk op E of I om verder te gaan.", ,of,trials_SCIAT_both_A.xlsx,2,Positief,Negatief,Chinese symbolen,2, ,white, ,e,e,2,i,i,pic5.jpg,,,0,2,2,2,0,3,3,4,,,,,,,,,,,,,,,,,,,,,,,,,,,,,,i,1,0.374462069478,None,0,,,50,F,19,64.1593364484,SCIAT IAT and likerts,2016_mrt_02_1040,
purple,white,"Dit is een fase met CHINESE SYMBOLEN, POSITIEF en NEGATIEF.

** Opgepast, de responsen werden omgewisseld! **

Probeer steeds zo snel mogelijk te antwoorden zonder te veel fouten te maken.

Druk op E of I om verder te gaan.", ,of,trials_SCIAT_both_A.xlsx,2,Positief,Negatief,Chinese symbolen,2, ,purple,vijandig,i,i,4,e,e,blank.png,,,0,2,2,2,0,4,4,33,,,,,,,,,,,,,,,,,,,,,,,,,,,,,,e,1,0.764540520846,None,0,,,50,F,19,64.1593364484,SCIAT IAT and likerts,2016_mrt_02_1040,
purple,white,"Dit is een fase met CHINESE SYMBOLEN, POSITIEF en NEGATIEF.

** Opgepast, de responsen werden omgewisseld! **

Probeer steeds zo snel mogelijk te antwoorden zonder te veel fouten te maken.

Druk op E of I om verder te gaan.", ,of,trials_SCIAT_both_A.xlsx,2,Positief,Negatief,Chinese symbolen,2, ,white, ,e,e,2,i,i,pic1.jpg,,,0,2,2,2,0,5,5,0,,,,,,,,,,,,,,,,,,,,,,,,,,,,,,i,1,0.577367961057,None,0,,,50,F,19,64.1593364484,SCIAT IAT and likerts,2016_mrt_02_1040,
purple,white,"Dit is een fase met CHINESE SYMBOLEN, POSITIEF en NEGATIEF.

** Opgepast, de responsen werden omgewisseld! **

Probeer steeds zo snel mogelijk te antwoorden zonder te veel fouten te maken.

Druk op E of I om verder te gaan.", ,of,trials_SCIAT_both_A.xlsx,2,Positief,Negatief,Chinese symbolen,2, ,purple,prettig,e,e,3,i,i,blank.png,,,0,2,2,2,0,6,6,13,,,,,,,,,,,,,,,,,,,,,,,,,,,,,,i,1,0.54609410686,None,0,,,50,F,19,64.1593364484,SCIAT IAT and likerts,2016_mrt_02_1040,
purple,white,"Dit is een fase met CHINESE SYMBOLEN, POSITIEF en NEGATIEF.

** Opgepast, de responsen werden omgewisseld! **

Probeer steeds zo snel mogelijk te antwoorden zonder te veel fouten te maken.

Druk op E of I om verder te gaan.", ,of,trials_SCIAT_both_A.xlsx,2,Positief,Negatief,Chinese symbolen,2, ,purple,walging,i,i,4,e,e,blank.png,,,0,2,2,2,0,7,7,20,,,,,,,,,,,,,,,,,,,,,,,,,,,,,,e,1,0.686540002469,None,0,,,50,F,19,64.1593364484,SCIAT IAT and likerts,2016_mrt_02_1040,
purple,white,"Dit is een fase met CHINESE SYMBOLEN, POSITIEF en NEGATIEF.

** Opgepast, de responsen werden omgewisseld! **

Probeer steeds zo snel mogelijk te antwoorden zonder te veel fouten te maken.

Druk op E of I om verder te gaan.", ,of,trials_SCIAT_both_A.xlsx,2,Positief,Negatief,Chinese symbolen,2, ,white, ,e,e,2,i,i,pic2.jpg,,,0,2,2,2,0,8,8,1,,,,,,,,,,,,,,,,,,,,,,,,,,,,,,i,1,0.608436362585,None,0,,,50,F,19,64.1593364484,SCIAT IAT and likerts,2016_mrt_02_1040,
purple,white,"Dit is een fase met CHINESE SYMBOLEN, POSITIEF en NEGATIEF.

** Opgepast, de responsen werden omgewisseld! **

Probeer steeds zo snel mogelijk te antwoorden zonder te veel fouten te maken.

Druk op E of I om verder te gaan.", ,of,trials_SCIAT_both_A.xlsx,2,Positief,Negatief,Chinese symbolen,2, ,white, ,e,e,2,i,i,pic3.jpg,,,0,2,2,2,0,9,9,7,,,,,,,,,,,,,,,,,,,,,,,,,,,,,,i,1,0.436909422278,None,0,,,50,F,19,64.1593364484,SCIAT IAT and likerts,2016_mrt_02_1040,
purple,white,"Dit is een fase met CHINESE SYMBOLEN, POSITIEF en NEGATIEF.

** Opgepast, de responsen werden omgewisseld! **

Probeer steeds zo snel mogelijk te antwoorden zonder te veel fouten te maken.

Druk op E of I om verder te gaan.", ,of,trials_SCIAT_both_A.xlsx,2,Positief,Negatief,Chinese symbolen,2, ,white, ,e,e,2,i,i,pic3.jpg,,,0,2,2,2,0,10,10,2,,,,,,,,,,,,,,,,,,,,,,,,,,,,,,i,1,0.327745282906,None,0,,,50,F,19,64.1593364484,SCIAT IAT and likerts,2016_mrt_02_1040,
purple,white,"Dit is een fase met CHINESE SYMBOLEN, POSITIEF en NEGATIEF.

** Opgepast, de responsen werden omgewisseld! **

Probeer steeds zo snel mogelijk te antwoorden zonder te veel fouten te maken.

Druk op E of I om verder te gaan.", ,of,trials_SCIAT_both_A.xlsx,2,Positief,Negatief,Chinese symbolen,2, ,purple,vijandig,i,i,4,e,e,blank.png,,,0,2,2,2,0,11,11,23,,,,,,,,,,,,,,,,,,,,,,,,,,,,,,e,1,0.592807337525,None,0,,,50,F,19,64.1593364484,SCIAT IAT and likerts,2016_mrt_02_1040,
purple,white,"Dit is een fase met CHINESE SYMBOLEN, POSITIEF en NEGATIEF.

** Opgepast, de responsen werden omgewisseld! **

Probeer steeds zo snel mogelijk te antwoorden zonder te veel fouten te maken.

Druk op E of I om verder te gaan.", ,of,trials_SCIAT_both_A.xlsx,2,Positief,Negatief,Chinese symbolen,2, ,purple,geluk,e,e,3,i,i,blank.png,,,0,2,2,2,0,12,12,10,,,,,,,,,,,,,,,,,,,,,,,,,,,,,,i,1,0.546010345337,None,0,,,50,F,19,64.1593364484,SCIAT IAT and likerts,2016_mrt_02_1040,
purple,white,"Dit is een fase met CHINESE SYMBOLEN, POSITIEF en NEGATIEF.

** Opgepast, de responsen werden omgewisseld! **

Probeer steeds zo snel mogelijk te antwoorden zonder te veel fouten te maken.

Druk op E of I om verder te gaan.", ,of,trials_SCIAT_both_A.xlsx,2,Positief,Negatief,Chinese symbolen,2, ,purple,pijn,i,i,4,e,e,blank.png,,,0,2,2,2,0,13,13,21,,,,,,,,,,,,,,,,,,,,,,,,,,,,,,e,1,0.795399123454,None,0,,,50,F,19,64.1593364484,SCIAT IAT and likerts,2016_mrt_02_1040,
purple,white,"Dit is een fase met CHINESE SYMBOLEN, POSITIEF en NEGATIEF.

** Opgepast, de responsen werden omgewisseld! **

Probeer steeds zo snel mogelijk te antwoorden zonder te veel fouten te maken.

Druk op E of I om verder te gaan.", ,of,trials_SCIAT_both_A.xlsx,2,Positief,Negatief,Chinese symbolen,2, ,purple,walging,i,i,4,e,e,blank.png,,,0,2,2,2,0,14,14,30,,,,,,,,,,,,,,,,,,,,,,,,,,,,,,e,1,0.577275507385,None,0,,,50,F,19,64.1593364484,SCIAT IAT and likerts,2016_mrt_02_1040,
purple,white,"Dit is een fase met CHINESE SYMBOLEN, POSITIEF en NEGATIEF.

** Opgepast, de responsen werden omgewisseld! **

Probeer steeds zo snel mogelijk te antwoorden zonder te veel fouten te maken.

Druk op E of I om verder te gaan.", ,of,trials_SCIAT_both_A.xlsx,2,Positief,Negatief,Chinese symbolen,2, ,purple,gemeen,i,i,4,e,e,blank.png,,,0,2,2,2,0,15,15,32,,,,,,,,,,,,,,,,,,,,,,,,,,,,,,e,1,0.561577734654,None,0,,,50,F,19,64.1593364484,SCIAT IAT and likerts,2016_mrt_02_1040,
purple,white,"Dit is een fase met CHINESE SYMBOLEN, POSITIEF en NEGATIEF.

** Opgepast, de responsen werden omgewisseld! **

Probeer steeds zo snel mogelijk te antwoorden zonder te veel fouten te maken.

Druk op E of I om verder te gaan.", ,of,trials_SCIAT_both_A.xlsx,2,Positief,Negatief,Chinese symbolen,2, ,purple,blij,e,e,3,i,i,blank.png,,,0,2,2,2,0,16,16,16,,,,,,,,,,,,,,,,,,,,,,,,,,,,,,i,1,0.561761851772,None,0,,,50,F,19,64.1593364484,SCIAT IAT and likerts,2016_mrt_02_1040,
purple,white,"Dit is een fase met CHINESE SYMBOLEN, POSITIEF en NEGATIEF.

** Opgepast, de responsen werden omgewisseld! **

Probeer steeds zo snel mogelijk te antwoorden zonder te veel fouten te maken.

Druk op E of I om verder te gaan.", ,of,trials_SCIAT_both_A.xlsx,2,Positief,Negatief,Chinese symbolen,2, ,purple,goed,e,e,3,i,i,blank.png,,,0,2,2,2,0,17,17,14,,,,,,,,,,,,,,,,,,,,,,,,,,,,,,i,1,0.592900186311,None,0,,,50,F,19,64.1593364484,SCIAT IAT and likerts,2016_mrt_02_1040,
purple,white,"Dit is een fase met CHINESE SYMBOLEN, POSITIEF en NEGATIEF.

** Opgepast, de responsen werden omgewisseld! **

Probeer steeds zo snel mogelijk te antwoorden zonder te veel fouten te maken.

Druk op E of I om verder te gaan.", ,of,trials_SCIAT_both_A.xlsx,2,Positief,Negatief,Chinese symbolen,2, ,white, ,e,e,2,i,i,pic2.jpg,,,0,2,2,2,0,18,18,6,,,,,,,,,,,,,,,,,,,,,,,,,,,,,,i,1,1.09189149248,None,0,,,50,F,19,64.1593364484,SCIAT IAT and likerts,2016_mrt_02_1040,
purple,white,"Dit is een fase met CHINESE SYMBOLEN, POSITIEF en NEGATIEF.

** Opgepast, de responsen werden omgewisseld! **

Probeer steeds zo snel mogelijk te antwoorden zonder te veel fouten te maken.

Druk op E of I om verder te gaan.", ,of,trials_SCIAT_both_A.xlsx,2,Positief,Negatief,Chinese symbolen,2, ,purple,hatelijk,i,i,4,e,e,blank.png,,,0,2,2,2,0,19,19,24,,,,,,,,,,,,,,,,,,,,,,,,,,,,,,e,1,0.577334377449,None,0,,,50,F,19,64.1593364484,SCIAT IAT and likerts,2016_mrt_02_1040,
purple,white,"Dit is een fase met CHINESE SYMBOLEN, POSITIEF en NEGATIEF.

** Opgepast, de responsen werden omgewisseld! **

Probeer steeds zo snel mogelijk te antwoorden zonder te veel fouten te maken.

Druk op E of I om verder te gaan.", ,of,trials_SCIAT_both_A.xlsx,2,Positief,Negatief,Chinese symbolen,2, ,purple,vijandig,i,i,4,e,e,blank.png,,,0,2,2,2,0,20,20,28,,,,,,,,,,,,,,,,,,,,,,,,,,,,,,e,1,0.592710932833,None,0,,,50,F,19,64.1593364484,SCIAT IAT and likerts,2016_mrt_02_1040,
purple,white,"Dit is een fase met CHINESE SYMBOLEN, POSITIEF en NEGATIEF.

** Opgepast, de responsen werden omgewisseld! **

Probeer steeds zo snel mogelijk te antwoorden zonder te veel fouten te maken.

Druk op E of I om verder te gaan.", ,of,trials_SCIAT_both_A.xlsx,2,Positief,Negatief,Chinese symbolen,2, ,purple,gemeen,i,i,4,e,e,blank.png,,,0,2,2,2,0,21,21,27,,,,,,,,,,,,,,,,,,,,,,,,,,,,,,e,1,0.639591291314,None,0,,,50,F,19,64.1593364484,SCIAT IAT and likerts,2016_mrt_02_1040,
purple,white,"Dit is een fase met CHINESE SYMBOLEN, POSITIEF en NEGATIEF.

** Opgepast, de responsen werden omgewisseld! **

Probeer steeds zo snel mogelijk te antwoorden zonder te veel fouten te maken.

Druk op E of I om verder te gaan.", ,of,trials_SCIAT_both_A.xlsx,2,Positief,Negatief,Chinese symbolen,2, ,white, ,e,e,2,i,i,pic1.jpg,,,0,2,2,2,0,22,22,5,,,,,,,,,,,,,,,,,,,,,,,,,,,,,,i,1,0.421320697526,None,0,,,50,F,19,64.1593364484,SCIAT IAT and likerts,2016_mrt_02_1040,
purple,white,"Dit is een fase met CHINESE SYMBOLEN, POSITIEF en NEGATIEF.

** Opgepast, de responsen werden omgewisseld! **

Probeer steeds zo snel mogelijk te antwoorden zonder te veel fouten te maken.

Druk op E of I om verder te gaan.", ,of,trials_SCIAT_both_A.xlsx,2,Positief,Negatief,Chinese symbolen,2, ,purple,hatelijk,i,i,4,e,e,blank.png,,,0,2,2,2,0,23,23,34,,,,,,,,,,,,,,,,,,,,,,,,,,,,,,e,1,0.748878307175,None,0,,,50,F,19,64.1593364484,SCIAT IAT and likerts,2016_mrt_02_1040,
purple,white,"Dit is een fase met CHINESE SYMBOLEN, POSITIEF en NEGATIEF.

** Opgepast, de responsen werden omgewisseld! **

Probeer steeds zo snel mogelijk te antwoorden zonder te veel fouten te maken.

Druk op E of I om verder te gaan.", ,of,trials_SCIAT_both_A.xlsx,2,Positief,Negatief,Chinese symbolen,2, ,white, ,e,e,2,i,i,pic4.jpg,,,0,2,2,2,0,24,24,8,,,,,,,,,,,,,,,,,,,,,,,,,,,,,,i,1,0.374458118458,None,0,,,50,F,19,64.1593364484,SCIAT IAT and likerts,2016_mrt_02_1040,
purple,white,"Dit is een fase met CHINESE SYMBOLEN, POSITIEF en NEGATIEF.

** Opgepast, de responsen werden omgewisseld! **

Probeer steeds zo snel mogelijk te antwoorden zonder te veel fouten te maken.

Druk op E of I om verder te gaan.", ,of,trials_SCIAT_both_A.xlsx,2,Positief,Negatief,Chinese symbolen,2, ,purple,walging,i,i,4,e,e,blank.png,,,0,2,2,2,0,25,25,25,,,,,,,,,,,,,,,,,,,,,,,,,,,,,,e,1,0.514904804295,None,0,,,50,F,19,64.1593364484,SCIAT IAT and likerts,2016_mrt_02_1040,
purple,white,"Dit is een fase met CHINESE SYMBOLEN, POSITIEF en NEGATIEF.

** Opgepast, de responsen werden omgewisseld! **

Probeer steeds zo snel mogelijk te antwoorden zonder te veel fouten te maken.

Druk op E of I om verder te gaan.", ,of,trials_SCIAT_both_A.xlsx,2,Positief,Negatief,Chinese symbolen,2, ,purple,pijn,i,i,4,e,e,blank.png,,,0,2,2,2,0,26,26,26,,,,,,,,,,,,,,,,,,,,,,,,,,,,,,e,1,0.624106478179,None,0,,,50,F,19,64.1593364484,SCIAT IAT and likerts,2016_mrt_02_1040,
purple,white,"Dit is een fase met CHINESE SYMBOLEN, POSITIEF en NEGATIEF.

** Opgepast, de responsen werden omgewisseld! **

Probeer steeds zo snel mogelijk te antwoorden zonder te veel fouten te maken.

Druk op E of I om verder te gaan.", ,of,trials_SCIAT_both_A.xlsx,2,Positief,Negatief,Chinese symbolen,2, ,purple,prettig,e,e,3,i,i,blank.png,,,0,2,2,2,0,27,27,18,,,,,,,,,,,,,,,,,,,,,,,,,,,,,,i,1,0.514893741347,None,0,,,50,F,19,64.1593364484,SCIAT IAT and likerts,2016_mrt_02_1040,
purple,white,"Dit is een fase met CHINESE SYMBOLEN, POSITIEF en NEGATIEF.

** Opgepast, de responsen werden omgewisseld! **

Probeer steeds zo snel mogelijk te antwoorden zonder te veel fouten te maken.

Druk op E of I om verder te gaan.", ,of,trials_SCIAT_both_A.xlsx,2,Positief,Negatief,Chinese symbolen,2, ,purple,blij,e,e,3,i,i,blank.png,,,0,2,2,2,0,28,28,11,,,,,,,,,,,,,,,,,,,,,,,,,,,,,,i,1,0.577246664907,None,0,,,50,F,19,64.1593364484,SCIAT IAT and likerts,2016_mrt_02_1040,
purple,white,"Dit is een fase met CHINESE SYMBOLEN, POSITIEF en NEGATIEF.

** Opgepast, de responsen werden omgewisseld! **

Probeer steeds zo snel mogelijk te antwoorden zonder te veel fouten te maken.

Druk op E of I om verder te gaan.", ,of,trials_SCIAT_both_A.xlsx,2,Positief,Negatief,Chinese symbolen,2, ,purple,vriendelijk,e,e,3,i,i,blank.png,,,0,2,2,2,0,29,29,17,,,,,,,,,,,,,,,,,,,,,,,,,,,,,,i,1,0.577305930085,None,0,,,50,F,19,64.1593364484,SCIAT IAT and likerts,2016_mrt_02_1040,
purple,white,"Dit is een fase met CHINESE SYMBOLEN, POSITIEF en NEGATIEF.

** Opgepast, de responsen werden omgewisseld! **

Probeer steeds zo snel mogelijk te antwoorden zonder te veel fouten te maken.

Druk op E of I om verder te gaan.", ,of,trials_SCIAT_both_A.xlsx,2,Positief,Negatief,Chinese symbolen,2, ,purple,pijn,i,i,4,e,e,blank.png,,,0,2,2,2,0,30,30,31,,,,,,,,,,,,,,,,,,,,,,,,,,,,,,e,1,0.811250985716,None,0,,,50,F,19,64.1593364484,SCIAT IAT and likerts,2016_mrt_02_1040,
purple,white,"Dit is een fase met CHINESE SYMBOLEN, POSITIEF en NEGATIEF.

** Opgepast, de responsen werden omgewisseld! **

Probeer steeds zo snel mogelijk te antwoorden zonder te veel fouten te maken.

Druk op E of I om verder te gaan.", ,of,trials_SCIAT_both_A.xlsx,2,Positief,Negatief,Chinese symbolen,2, ,purple,geluk,e,e,3,i,i,blank.png,,,0,2,2,2,0,31,31,15,,,,,,,,,,,,,,,,,,,,,,,,,,,,,,i,1,0.530502616311,None,0,,,50,F,19,64.1593364484,SCIAT IAT and likerts,2016_mrt_02_1040,
purple,white,"Dit is een fase met CHINESE SYMBOLEN, POSITIEF en NEGATIEF.

** Opgepast, de responsen werden omgewisseld! **

Probeer steeds zo snel mogelijk te antwoorden zonder te veel fouten te maken.

Druk op E of I om verder te gaan.", ,of,trials_SCIAT_both_A.xlsx,2,Positief,Negatief,Chinese symbolen,2, ,purple,gemeen,i,i,4,e,e,blank.png,,,0,2,2,2,0,32,32,22,,,,,,,,,,,,,,,,,,,,,,,,,,,,,,e,1,0.670982885757,None,0,,,50,F,19,64.1593364484,SCIAT IAT and likerts,2016_mrt_02_1040,
purple,white,"Dit is een fase met CHINESE SYMBOLEN, POSITIEF en NEGATIEF.

** Opgepast, de responsen werden omgewisseld! **

Probeer steeds zo snel mogelijk te antwoorden zonder te veel fouten te maken.

Druk op E of I om verder te gaan.", ,of,trials_SCIAT_both_A.xlsx,2,Positief,Negatief,Chinese symbolen,2, ,purple,goed,e,e,3,i,i,blank.png,,,0,2,2,2,0,33,33,19,,,,,,,,,,,,,,,,,,,,,,,,,,,,,,i,1,0.514712785021,None,0,,,50,F,19,64.1593364484,SCIAT IAT and likerts,2016_mrt_02_1040,
purple,white,"Dit is een fase met CHINESE SYMBOLEN, POSITIEF en NEGATIEF.

** Opgepast, de responsen werden omgewisseld! **

Probeer steeds zo snel mogelijk te antwoorden zonder te veel fouten te maken.

Druk op E of I om verder te gaan.", ,of,trials_SCIAT_both_A.xlsx,2,Positief,Negatief,Chinese symbolen,2, ,purple,hatelijk,i,i,4,e,e,blank.png,,,0,2,2,2,0,34,34,29,,,,,,,,,,,,,,,,,,,,,,,,,,,,,,e,1,0.56171127886,None,0,,,50,F,19,64.1593364484,SCIAT IAT and likerts,2016_mrt_02_1040,
purple,white,"Dit is een fase met CHINESE SYMBOLEN, POSITIEF en NEGATIEF.

** Opgepast, de responsen werden omgewisseld! **

Probeer steeds zo snel mogelijk te antwoorden zonder te veel fouten te maken.

Druk op E of I om verder te gaan.", ,of,trials_SCIAT_both_A.xlsx,2,Positief,Negatief,Chinese symbolen,2, ,purple,pijn,i,i,4,e,e,blank.png,,,0,2,2,2,1,0,35,21,,,,,,,,,,,,,,,,,,,,,,,,,,,,,,e,1,0.780087364838,None,0,,,50,F,19,64.1593364484,SCIAT IAT and likerts,2016_mrt_02_1040,
purple,white,"Dit is een fase met CHINESE SYMBOLEN, POSITIEF en NEGATIEF.

** Opgepast, de responsen werden omgewisseld! **

Probeer steeds zo snel mogelijk te antwoorden zonder te veel fouten te maken.

Druk op E of I om verder te gaan.", ,of,trials_SCIAT_both_A.xlsx,2,Positief,Negatief,Chinese symbolen,2, ,white, ,e,e,2,i,i,pic1.jpg,,,0,2,2,2,1,1,36,5,,,,,,,,,,,,,,,,,,,,,,,,,,,,,,i,1,0.421294620726,None,0,,,50,F,19,64.1593364484,SCIAT IAT and likerts,2016_mrt_02_1040,
purple,white,"Dit is een fase met CHINESE SYMBOLEN, POSITIEF en NEGATIEF.

** Opgepast, de responsen werden omgewisseld! **

Probeer steeds zo snel mogelijk te antwoorden zonder te veel fouten te maken.

Druk op E of I om verder te gaan.", ,of,trials_SCIAT_both_A.xlsx,2,Positief,Negatief,Chinese symbolen,2, ,white, ,e,e,2,i,i,pic4.jpg,,,0,2,2,2,1,2,37,3,,,,,,,,,,,,,,,,,,,,,,,,,,,,,,i,1,0.3743399831,None,0,,,50,F,19,64.1593364484,SCIAT IAT and likerts,2016_mrt_02_1040,
purple,white,"Dit is een fase met CHINESE SYMBOLEN, POSITIEF en NEGATIEF.

** Opgepast, de responsen werden omgewisseld! **

Probeer steeds zo snel mogelijk te antwoorden zonder te veel fouten te maken.

Druk op E of I om verder te gaan.", ,of,trials_SCIAT_both_A.xlsx,2,Positief,Negatief,Chinese symbolen,2, ,purple,walging,i,i,4,e,e,blank.png,,,0,2,2,2,1,3,38,20,,,,,,,,,,,,,,,,,,,,,,,,,,,,,,e,1,0.57730869588,None,0,,,50,F,19,64.1593364484,SCIAT IAT and likerts,2016_mrt_02_1040,
purple,white,"Dit is een fase met CHINESE SYMBOLEN, POSITIEF en NEGATIEF.

** Opgepast, de responsen werden omgewisseld! **

Probeer steeds zo snel mogelijk te antwoorden zonder te veel fouten te maken.

Druk op E of I om verder te gaan.", ,of,trials_SCIAT_both_A.xlsx,2,Positief,Negatief,Chinese symbolen,2, ,white, ,e,e,2,i,i,pic1.jpg,,,0,2,2,2,1,4,39,0,,,,,,,,,,,,,,,,,,,,,,,,,,,,,,i,1,0.546119393315,None,0,,,50,F,19,64.1593364484,SCIAT IAT and likerts,2016_mrt_02_1040,
purple,white,"Dit is een fase met CHINESE SYMBOLEN, POSITIEF en NEGATIEF.

** Opgepast, de responsen werden omgewisseld! **

Probeer steeds zo snel mogelijk te antwoorden zonder te veel fouten te maken.

Druk op E of I om verder te gaan.", ,of,trials_SCIAT_both_A.xlsx,2,Positief,Negatief,Chinese symbolen,2, ,purple,geluk,e,e,3,i,i,blank.png,,,0,2,2,2,1,5,40,10,,,,,,,,,,,,,,,,,,,,,,,,,,,,,,i,1,0.826901741442,None,0,,,50,F,19,64.1593364484,SCIAT IAT and likerts,2016_mrt_02_1040,
purple,white,"Dit is een fase met CHINESE SYMBOLEN, POSITIEF en NEGATIEF.

** Opgepast, de responsen werden omgewisseld! **

Probeer steeds zo snel mogelijk te antwoorden zonder te veel fouten te maken.

Druk op E of I om verder te gaan.", ,of,trials_SCIAT_both_A.xlsx,2,Positief,Negatief,Chinese symbolen,2, ,purple,hatelijk,i,i,4,e,e,blank.png,,,0,2,2,2,1,6,41,29,,,,,,,,,,,,,,,,,,,,,,,,,,,,,,e,1,0.59290295199,None,0,,,50,F,19,64.1593364484,SCIAT IAT and likerts,2016_mrt_02_1040,
purple,white,"Dit is een fase met CHINESE SYMBOLEN, POSITIEF en NEGATIEF.

** Opgepast, de responsen werden omgewisseld! **

Probeer steeds zo snel mogelijk te antwoorden zonder te veel fouten te maken.

Druk op E of I om verder te gaan.", ,of,trials_SCIAT_both_A.xlsx,2,Positief,Negatief,Chinese symbolen,2, ,purple,gemeen,i,i,4,e,e,blank.png,,,0,2,2,2,1,7,42,32,,,,,,,,,,,,,,,,,,,,,,,,,,,,,,e,1,0.561623961548,None,0,,,50,F,19,64.1593364484,SCIAT IAT and likerts,2016_mrt_02_1040,
purple,white,"Dit is een fase met CHINESE SYMBOLEN, POSITIEF en NEGATIEF.

** Opgepast, de responsen werden omgewisseld! **

Probeer steeds zo snel mogelijk te antwoorden zonder te veel fouten te maken.

Druk op E of I om verder te gaan.", ,of,trials_SCIAT_both_A.xlsx,2,Positief,Negatief,Chinese symbolen,2, ,purple,vijandig,i,i,4,e,e,blank.png,,,0,2,2,2,1,8,43,33,,,,,,,,,,,,,,,,,,,,,,,,,,,,,,e,1,0.421151594026,None,0,,,50,F,19,64.1593364484,SCIAT IAT and likerts,2016_mrt_02_1040,
purple,white,"Dit is een fase met CHINESE SYMBOLEN, POSITIEF en NEGATIEF.

** Opgepast, de responsen werden omgewisseld! **

Probeer steeds zo snel mogelijk te antwoorden zonder te veel fouten te maken.

Druk op E of I om verder te gaan.", ,of,trials_SCIAT_both_A.xlsx,2,Positief,Negatief,Chinese symbolen,2, ,purple,vijandig,i,i,4,e,e,blank.png,,,0,2,2,2,1,9,44,28,,,,,,,,,,,,,,,,,,,,,,,,,,,,,,e,1,0.358855565195,None,0,,,50,F,19,64.1593364484,SCIAT IAT and likerts,2016_mrt_02_1040,
purple,white,"Dit is een fase met CHINESE SYMBOLEN, POSITIEF en NEGATIEF.

** Opgepast, de responsen werden omgewisseld! **

Probeer steeds zo snel mogelijk te antwoorden zonder te veel fouten te maken.

Druk op E of I om verder te gaan.", ,of,trials_SCIAT_both_A.xlsx,2,Positief,Negatief,Chinese symbolen,2, ,white, ,e,e,2,i,i,pic2.jpg,,,0,2,2,2,1,10,45,6,,,,,,,,,,,,,,,,,,,,,,,,,,,,,,i,1,0.452597317402,None,0,,,50,F,19,64.1593364484,SCIAT IAT and likerts,2016_mrt_02_1040,
purple,white,"Dit is een fase met CHINESE SYMBOLEN, POSITIEF en NEGATIEF.

** Opgepast, de responsen werden omgewisseld! **

Probeer steeds zo snel mogelijk te antwoorden zonder te veel fouten te maken.

Druk op E of I om verder te gaan.", ,of,trials_SCIAT_both_A.xlsx,2,Positief,Negatief,Chinese symbolen,2, ,purple,walging,i,i,4,e,e,blank.png,,,0,2,2,2,1,11,46,25,,,,,,,,,,,,,,,,,,,,,,,,,,,,,,e,1,0.561642926303,None,0,,,50,F,19,64.1593364484,SCIAT IAT and likerts,2016_mrt_02_1040,
purple,white,"Dit is een fase met CHINESE SYMBOLEN, POSITIEF en NEGATIEF.

** Opgepast, de responsen werden omgewisseld! **

Probeer steeds zo snel mogelijk te antwoorden zonder te veel fouten te maken.

Druk op E of I om verder te gaan.", ,of,trials_SCIAT_both_A.xlsx,2,Positief,Negatief,Chinese symbolen,2, ,purple,blij,e,e,3,i,i,blank.png,,,0,2,2,2,1,12,47,11,,,,,,,,,,,,,,,,,,,,,,,,,,,,,,i,1,0.530528297997,None,0,,,50,F,19,64.1593364484,SCIAT IAT and likerts,2016_mrt_02_1040,
purple,white,"Dit is een fase met CHINESE SYMBOLEN, POSITIEF en NEGATIEF.

** Opgepast, de responsen werden omgewisseld! **

Probeer steeds zo snel mogelijk te antwoorden zonder te veel fouten te maken.

Druk op E of I om verder te gaan.", ,of,trials_SCIAT_both_A.xlsx,2,Positief,Negatief,Chinese symbolen,2, ,purple,hatelijk,i,i,4,e,e,blank.png,,,0,2,2,2,1,13,48,24,,,,,,,,,,,,,,,,,,,,,,,,,,,,,,e,1,0.561629097792,None,0,,,50,F,19,64.1593364484,SCIAT IAT and likerts,2016_mrt_02_1040,
purple,white,"Dit is een fase met CHINESE SYMBOLEN, POSITIEF en NEGATIEF.

** Opgepast, de responsen werden omgewisseld! **

Probeer steeds zo snel mogelijk te antwoorden zonder te veel fouten te maken.

Druk op E of I om verder te gaan.", ,of,trials_SCIAT_both_A.xlsx,2,Positief,Negatief,Chinese symbolen,2, ,purple,prettig,e,e,3,i,i,blank.png,,,0,2,2,2,1,14,49,13,,,,,,,,,,,,,,,,,,,,,,,,,,,,,,i,1,0.546058152569,None,0,,,50,F,19,64.1593364484,SCIAT IAT and likerts,2016_mrt_02_1040,
purple,white,"Dit is een fase met CHINESE SYMBOLEN, POSITIEF en NEGATIEF.

** Opgepast, de responsen werden omgewisseld! **

Probeer steeds zo snel mogelijk te antwoorden zonder te veel fouten te maken.

Druk op E of I om verder te gaan.", ,of,trials_SCIAT_both_A.xlsx,2,Positief,Negatief,Chinese symbolen,2, ,purple,goed,e,e,3,i,i,blank.png,,,0,2,2,2,1,15,50,19,,,,,,,,,,,,,,,,,,,,,,,,,,,,,,i,1,0.6085232849,None,0,,,50,F,19,64.1593364484,SCIAT IAT and likerts,2016_mrt_02_1040,
purple,white,"Dit is een fase met CHINESE SYMBOLEN, POSITIEF en NEGATIEF.

** Opgepast, de responsen werden omgewisseld! **

Probeer steeds zo snel mogelijk te antwoorden zonder te veel fouten te maken.

Druk op E of I om verder te gaan.", ,of,trials_SCIAT_both_A.xlsx,2,Positief,Negatief,Chinese symbolen,2, ,purple,vriendelijk,e,e,3,i,i,blank.png,,,0,2,2,2,1,16,51,17,,,,,,,,,,,,,,,,,,,,,,,,,,,,,,i,1,0.452472860459,None,0,,,50,F,19,64.1593364484,SCIAT IAT and likerts,2016_mrt_02_1040,
purple,white,"Dit is een fase met CHINESE SYMBOLEN, POSITIEF en NEGATIEF.

** Opgepast, de responsen werden omgewisseld! **

Probeer steeds zo snel mogelijk te antwoorden zonder te veel fouten te maken.

Druk op E of I om verder te gaan.", ,of,trials_SCIAT_both_A.xlsx,2,Positief,Negatief,Chinese symbolen,2, ,white, ,e,e,2,i,i,pic3.jpg,,,0,2,2,2,1,17,52,2,,,,,,,,,,,,,,,,,,,,,,,,,,,,,,i,1,0.592391295824,None,0,,,50,F,19,64.1593364484,SCIAT IAT and likerts,2016_mrt_02_1040,
purple,white,"Dit is een fase met CHINESE SYMBOLEN, POSITIEF en NEGATIEF.

** Opgepast, de responsen werden omgewisseld! **

Probeer steeds zo snel mogelijk te antwoorden zonder te veel fouten te maken.

Druk op E of I om verder te gaan.", ,of,trials_SCIAT_both_A.xlsx,2,Positief,Negatief,Chinese symbolen,2, ,white, ,e,e,2,i,i,pic2.jpg,,,0,2,2,2,1,18,53,1,,,,,,,,,,,,,,,,,,,,,,,,,,,,,,i,1,0.405549435876,None,0,,,50,F,19,64.1593364484,SCIAT IAT and likerts,2016_mrt_02_1040,
purple,white,"Dit is een fase met CHINESE SYMBOLEN, POSITIEF en NEGATIEF.

** Opgepast, de responsen werden omgewisseld! **

Probeer steeds zo snel mogelijk te antwoorden zonder te veel fouten te maken.

Druk op E of I om verder te gaan.", ,of,trials_SCIAT_both_A.xlsx,2,Positief,Negatief,Chinese symbolen,2, ,white, ,e,e,2,i,i,pic3.jpg,,,0,2,2,2,1,19,54,7,,,,,,,,,,,,,,,,,,,,,,,,,,,,,,i,1,0.312052251422,None,0,,,50,F,19,64.1593364484,SCIAT IAT and likerts,2016_mrt_02_1040,
purple,white,"Dit is een fase met CHINESE SYMBOLEN, POSITIEF en NEGATIEF.

** Opgepast, de responsen werden omgewisseld! **

Probeer steeds zo snel mogelijk te antwoorden zonder te veel fouten te maken.

Druk op E of I om verder te gaan.", ,of,trials_SCIAT_both_A.xlsx,2,Positief,Negatief,Chinese symbolen,2, ,purple,pijn,i,i,4,e,e,blank.png,,,0,2,2,2,1,20,55,31,,,,,,,,,,,,,,,,,,,,,,,,,,,,,,e,1,0.951627343544,None,0,,,50,F,19,64.1593364484,SCIAT IAT and likerts,2016_mrt_02_1040,
purple,white,"Dit is een fase met CHINESE SYMBOLEN, POSITIEF en NEGATIEF.

** Opgepast, de responsen werden omgewisseld! **

Probeer steeds zo snel mogelijk te antwoorden zonder te veel fouten te maken.

Druk op E of I om verder te gaan.", ,of,trials_SCIAT_both_A.xlsx,2,Positief,Negatief,Chinese symbolen,2, ,purple,gemeen,i,i,4,e,e,blank.png,,,0,2,2,2,1,21,56,27,,,,,,,,,,,,,,,,,,,,,,,,,,,,,,e,1,0.686454660608,None,0,,,50,F,19,64.1593364484,SCIAT IAT and likerts,2016_mrt_02_1040,
purple,white,"Dit is een fase met CHINESE SYMBOLEN, POSITIEF en NEGATIEF.

** Opgepast, de responsen werden omgewisseld! **

Probeer steeds zo snel mogelijk te antwoorden zonder te veel fouten te maken.

Druk op E of I om verder te gaan.", ,of,trials_SCIAT_both_A.xlsx,2,Positief,Negatief,Chinese symbolen,2, ,white, ,e,e,2,i,i,pic5.jpg,,,0,2,2,2,1,22,57,9,,,,,,,,,,,,,,,,,,,,,,,,,,,,,,i,1,0.421366134076,None,0,,,50,F,19,64.1593364484,SCIAT IAT and likerts,2016_mrt_02_1040,
purple,white,"Dit is een fase met CHINESE SYMBOLEN, POSITIEF en NEGATIEF.

** Opgepast, de responsen werden omgewisseld! **

Probeer steeds zo snel mogelijk te antwoorden zonder te veel fouten te maken.

Druk op E of I om verder te gaan.", ,of,trials_SCIAT_both_A.xlsx,2,Positief,Negatief,Chinese symbolen,2, ,purple,hatelijk,i,i,4,e,e,blank.png,,,0,2,2,2,1,23,58,34,,,,,,,,,,,,,,,,,,,,,,,,,,,,,,e,1,0.858070893795,None,0,,,50,F,19,64.1593364484,SCIAT IAT and likerts,2016_mrt_02_1040,
purple,white,"Dit is een fase met CHINESE SYMBOLEN, POSITIEF en NEGATIEF.

** Opgepast, de responsen werden omgewisseld! **

Probeer steeds zo snel mogelijk te antwoorden zonder te veel fouten te maken.

Druk op E of I om verder te gaan.", ,of,trials_SCIAT_both_A.xlsx,2,Positief,Negatief,Chinese symbolen,2, ,white, ,e,e,2,i,i,pic5.jpg,,,0,2,2,2,1,24,59,4,,,,,,,,,,,,,,,,,,,,,,,,,,,,,,i,1,0.57733161177,None,0,,,50,F,19,64.1593364484,SCIAT IAT and likerts,2016_mrt_02_1040,
purple,white,"Dit is een fase met CHINESE SYMBOLEN, POSITIEF en NEGATIEF.

** Opgepast, de responsen werden omgewisseld! **

Probeer steeds zo snel mogelijk te antwoorden zonder te veel fouten te maken.

Druk op E of I om verder te gaan.", ,of,trials_SCIAT_both_A.xlsx,2,Positief,Negatief,Chinese symbolen,2, ,purple,prettig,e,e,3,i,i,blank.png,,,0,2,2,2,1,25,60,18,,,,,,,,,,,,,,,,,,,,,,,,,,,,,,i,1,1.10752446856,None,0,,,50,F,19,64.1593364484,SCIAT IAT and likerts,2016_mrt_02_1040,
purple,white,"Dit is een fase met CHINESE SYMBOLEN, POSITIEF en NEGATIEF.

** Opgepast, de responsen werden omgewisseld! **

Probeer steeds zo snel mogelijk te antwoorden zonder te veel fouten te maken.

Druk op E of I om verder te gaan.", ,of,trials_SCIAT_both_A.xlsx,2,Positief,Negatief,Chinese symbolen,2, ,purple,geluk,e,e,3,i,i,blank.png,,,0,2,2,2,1,26,61,15,,,,,,,,,,,,,,,,,,,,,,,,,,,,,,i,1,0.561703376821,None,0,,,50,F,19,64.1593364484,SCIAT IAT and likerts,2016_mrt_02_1040,
purple,white,"Dit is een fase met CHINESE SYMBOLEN, POSITIEF en NEGATIEF.

** Opgepast, de responsen werden omgewisseld! **

Probeer steeds zo snel mogelijk te antwoorden zonder te veel fouten te maken.

Druk op E of I om verder te gaan.", ,of,trials_SCIAT_both_A.xlsx,2,Positief,Negatief,Chinese symbolen,2, ,purple,goed,e,e,3,i,i,blank.png,,,0,2,2,2,1,27,62,14,,,,,,,,,,,,,,,,,,,,,,,,,,,,,,i,1,0.374590082327,None,0,,,50,F,19,64.1593364484,SCIAT IAT and likerts,2016_mrt_02_1040,
purple,white,"Dit is een fase met CHINESE SYMBOLEN, POSITIEF en NEGATIEF.

** Opgepast, de responsen werden omgewisseld! **

Probeer steeds zo snel mogelijk te antwoorden zonder te veel fouten te maken.

Druk op E of I om verder te gaan.", ,of,trials_SCIAT_both_A.xlsx,2,Positief,Negatief,Chinese symbolen,2, ,purple,walging,i,i,4,e,e,blank.png,,,0,2,2,2,1,28,63,30,,,,,,,,,,,,,,,,,,,,,,,,,,,,,,e,1,1.3260921787,i,1,0.327630703454,,50,F,19,64.1593364484,SCIAT IAT and likerts,2016_mrt_02_1040,
purple,white,"Dit is een fase met CHINESE SYMBOLEN, POSITIEF en NEGATIEF.

** Opgepast, de responsen werden omgewisseld! **

Probeer steeds zo snel mogelijk te antwoorden zonder te veel fouten te maken.

Druk op E of I om verder te gaan.", ,of,trials_SCIAT_both_A.xlsx,2,Positief,Negatief,Chinese symbolen,2, ,purple,blij,e,e,3,i,i,blank.png,,,0,2,2,2,1,29,64,16,,,,,,,,,,,,,,,,,,,,,,,,,,,,,,i,1,0.561650038231,None,0,,,50,F,19,64.1593364484,SCIAT IAT and likerts,2016_mrt_02_1040,
purple,white,"Dit is een fase met CHINESE SYMBOLEN, POSITIEF en NEGATIEF.

** Opgepast, de responsen werden omgewisseld! **

Probeer steeds zo snel mogelijk te antwoorden zonder te veel fouten te maken.

Druk op E of I om verder te gaan.", ,of,trials_SCIAT_both_A.xlsx,2,Positief,Negatief,Chinese symbolen,2, ,white, ,e,e,2,i,i,pic4.jpg,,,0,2,2,2,1,30,65,8,,,,,,,,,,,,,,,,,,,,,,,,,,,,,,i,1,0.577314227354,None,0,,,50,F,19,64.1593364484,SCIAT IAT and likerts,2016_mrt_02_1040,
purple,white,"Dit is een fase met CHINESE SYMBOLEN, POSITIEF en NEGATIEF.

** Opgepast, de responsen werden omgewisseld! **

Probeer steeds zo snel mogelijk te antwoorden zonder te veel fouten te maken.

Druk op E of I om verder te gaan.", ,of,trials_SCIAT_both_A.xlsx,2,Positief,Negatief,Chinese symbolen,2, ,purple,vijandig,i,i,4,e,e,blank.png,,,0,2,2,2,1,31,66,23,,,,,,,,,,,,,,,,,,,,,,,,,,,,,,e,1,0.733248887002,None,0,,,50,F,19,64.1593364484,SCIAT IAT and likerts,2016_mrt_02_1040,
purple,white,"Dit is een fase met CHINESE SYMBOLEN, POSITIEF en NEGATIEF.

** Opgepast, de responsen werden omgewisseld! **

Probeer steeds zo snel mogelijk te antwoorden zonder te veel fouten te maken.

Druk op E of I om verder te gaan.", ,of,trials_SCIAT_both_A.xlsx,2,Positief,Negatief,Chinese symbolen,2, ,purple,vriendelijk,e,e,3,i,i,blank.png,,,0,2,2,2,1,32,67,12,,,,,,,,,,,,,,,,,,,,,,,,,,,,,,i,1,0.592914409935,None,0,,,50,F,19,64.1593364484,SCIAT IAT and likerts,2016_mrt_02_1040,
purple,white,"Dit is een fase met CHINESE SYMBOLEN, POSITIEF en NEGATIEF.

** Opgepast, de responsen werden omgewisseld! **

Probeer steeds zo snel mogelijk te antwoorden zonder te veel fouten te maken.

Druk op E of I om verder te gaan.", ,of,trials_SCIAT_both_A.xlsx,2,Positief,Negatief,Chinese symbolen,2, ,purple,gemeen,i,i,4,e,e,blank.png,,,0,2,2,2,1,33,68,22,,,,,,,,,,,,,,,,,,,,,,,,,,,,,,e,1,0.717643172946,None,0,,,50,F,19,64.1593364484,SCIAT IAT and likerts,2016_mrt_02_1040,
purple,white,"Dit is een fase met CHINESE SYMBOLEN, POSITIEF en NEGATIEF.

** Opgepast, de responsen werden omgewisseld! **

Probeer steeds zo snel mogelijk te antwoorden zonder te veel fouten te maken.

Druk op E of I om verder te gaan.", ,of,trials_SCIAT_both_A.xlsx,2,Positief,Negatief,Chinese symbolen,2, ,purple,pijn,i,i,4,e,e,blank.png,,,0,2,2,2,1,34,69,26,,,,,,,,,,,,,,,,,,,,,,,,,,,,,,e,1,0.545945153572,None,0,,,50,F,19,64.1593364484,SCIAT IAT and likerts,2016_mrt_02_1040,
,,"Hoe aangenaam vind je de volgende?
1 = helemaal niet aangenaam
2 = eerder niet aangenaam
3 = niet aangenaam
4 = onverschillig
5 = aangenaam
6 = eerder aangenaam
7 = heel aangenaam",,,,,,,,,,,,,,,,,,1,pic1.jpg,,,,,,,,,0,0,0,0,,,,,,,,,,,,,,,,,,,,,,,,,,,,,,,,4,50,F,19,64.1593364484,SCIAT IAT and likerts,2016_mrt_02_1040,
,,"Hoe aangenaam vind je de volgende?
1 = helemaal niet aangenaam
2 = eerder niet aangenaam
3 = niet aangenaam
4 = onverschillig
5 = aangenaam
6 = eerder aangenaam
7 = heel aangenaam",,,,,,,,,,,,,,,,,,1,pic2.jpg,,,,,,,,,0,1,1,1,,,,,,,,,,,,,,,,,,,,,,,,,,,,,,,,3,50,F,19,64.1593364484,SCIAT IAT and likerts,2016_mrt_02_1040,
,,"Hoe aangenaam vind je de volgende?
1 = helemaal niet aangenaam
2 = eerder niet aangenaam
3 = niet aangenaam
4 = onverschillig
5 = aangenaam
6 = eerder aangenaam
7 = heel aangenaam",,,,,,,,,,,,,,,,,,1,pic3.jpg,,,,,,,,,0,2,2,2,,,,,,,,,,,,,,,,,,,,,,,,,,,,,,,,5,50,F,19,64.1593364484,SCIAT IAT and likerts,2016_mrt_02_1040,
,,"Hoe aangenaam vind je de volgende?
1 = helemaal niet aangenaam
2 = eerder niet aangenaam
3 = niet aangenaam
4 = onverschillig
5 = aangenaam
6 = eerder aangenaam
7 = heel aangenaam",,,,,,,,,,,,,,,,,,1,pic4.jpg,,,,,,,,,0,3,3,3,,,,,,,,,,,,,,,,,,,,,,,,,,,,,,,,6,50,F,19,64.1593364484,SCIAT IAT and likerts,2016_mrt_02_1040,
,,"Hoe aangenaam vind je de volgende?
1 = helemaal niet aangenaam
2 = eerder niet aangenaam
3 = niet aangenaam
4 = onverschillig
5 = aangenaam
6 = eerder aangenaam
7 = heel aangenaam",,,,,,,,,,,,,,,,,,1,pic5.jpg,,,,,,,,,0,4,4,4,,,,,,,,,,,,,,,,,,,,,,,,,,,,,,,,5,50,F,19,64.1593364484,SCIAT IAT and likerts,2016_mrt_02_1040,
green,white,"In deze taak zullen stimuli een voor een op het scherm verschijnen. Jouw taak bestaat erin om op de linkse (E) of rechtse (I) toets te duwen afhankelijk van de categorie waartoe elke stimulus behoort.  Er zijn vier mogelijke categorieen:

(1) POSITIEF
(2) NEGATIEF
(3) CHINESE SYMBOLEN
(4) BLOEMEN ***

Welke categorieen aan welke knop zijn toegewezen, verschilt van fase tot fase. De categorieen die aan de linkerknop zijn toegewezen, zullen in de linker-bovenhoek van het scherm staan. De categorieen die aan de rechterknop zijn toegewezen, zullen in de rechter-bovenhoek van het scherm staan.

Probeer steeds zo snel mogelijk te antwoorden zonder te veel fouten te maken. Wanneer je een fout zou maken zal er een rood kruis verschijnen. Dit kruis zal blijven staan totdat je alsnog de juiste toets induwt.

Probeer steeds zo snel mogelijk te antwoorden zonder te veel fouten te maken.

Druk op E of I om verder te gaan.", , ,trials_IAT_attributes.xlsx,2,Positief,Negatief, ,1, ,green,vijandig,i,i,4,e,e,blank.png,,,,,,,,,,,,,,,0,0,0,0,0,0,0,8,,,,,,,,,,,,,,,,,,e,1,0.670589364716,None,0,,,50,F,19,64.1593364484,SCIAT IAT and likerts,2016_mrt_02_1040,
green,white,"In deze taak zullen stimuli een voor een op het scherm verschijnen. Jouw taak bestaat erin om op de linkse (E) of rechtse (I) toets te duwen afhankelijk van de categorie waartoe elke stimulus behoort.  Er zijn vier mogelijke categorieen:

(1) POSITIEF
(2) NEGATIEF
(3) CHINESE SYMBOLEN
(4) BLOEMEN ***

Welke categorieen aan welke knop zijn toegewezen, verschilt van fase tot fase. De categorieen die aan de linkerknop zijn toegewezen, zullen in de linker-bovenhoek van het scherm staan. De categorieen die aan de rechterknop zijn toegewezen, zullen in de rechter-bovenhoek van het scherm staan.

Probeer steeds zo snel mogelijk te antwoorden zonder te veel fouten te maken. Wanneer je een fout zou maken zal er een rood kruis verschijnen. Dit kruis zal blijven staan totdat je alsnog de juiste toets induwt.

Probeer steeds zo snel mogelijk te antwoorden zonder te veel fouten te maken.

Druk op E of I om verder te gaan.", , ,trials_IAT_attributes.xlsx,2,Positief,Negatief, ,1, ,green,pijn,i,i,4,e,e,blank.png,,,,,,,,,,,,,,,0,0,0,0,0,1,1,6,,,,,,,,,,,,,,,,,,e,1,0.624005727354,None,0,,,50,F,19,64.1593364484,SCIAT IAT and likerts,2016_mrt_02_1040,
green,white,"In deze taak zullen stimuli een voor een op het scherm verschijnen. Jouw taak bestaat erin om op de linkse (E) of rechtse (I) toets te duwen afhankelijk van de categorie waartoe elke stimulus behoort.  Er zijn vier mogelijke categorieen:

(1) POSITIEF
(2) NEGATIEF
(3) CHINESE SYMBOLEN
(4) BLOEMEN ***

Welke categorieen aan welke knop zijn toegewezen, verschilt van fase tot fase. De categorieen die aan de linkerknop zijn toegewezen, zullen in de linker-bovenhoek van het scherm staan. De categorieen die aan de rechterknop zijn toegewezen, zullen in de rechter-bovenhoek van het scherm staan.

Probeer steeds zo snel mogelijk te antwoorden zonder te veel fouten te maken. Wanneer je een fout zou maken zal er een rood kruis verschijnen. Dit kruis zal blijven staan totdat je alsnog de juiste toets induwt.

Probeer steeds zo snel mogelijk te antwoorden zonder te veel fouten te maken.

Druk op E of I om verder te gaan.", , ,trials_IAT_attributes.xlsx,2,Positief,Negatief, ,1, ,green,geluk,e,e,3,i,i,blank.png,,,,,,,,,,,,,,,0,0,0,0,0,2,2,0,,,,,,,,,,,,,,,,,,i,1,0.624068943667,None,0,,,50,F,19,64.1593364484,SCIAT IAT and likerts,2016_mrt_02_1040,
green,white,"In deze taak zullen stimuli een voor een op het scherm verschijnen. Jouw taak bestaat erin om op de linkse (E) of rechtse (I) toets te duwen afhankelijk van de categorie waartoe elke stimulus behoort.  Er zijn vier mogelijke categorieen:

(1) POSITIEF
(2) NEGATIEF
(3) CHINESE SYMBOLEN
(4) BLOEMEN ***

Welke categorieen aan welke knop zijn toegewezen, verschilt van fase tot fase. De categorieen die aan de linkerknop zijn toegewezen, zullen in de linker-bovenhoek van het scherm staan. De categorieen die aan de rechterknop zijn toegewezen, zullen in de rechter-bovenhoek van het scherm staan.

Probeer steeds zo snel mogelijk te antwoorden zonder te veel fouten te maken. Wanneer je een fout zou maken zal er een rood kruis verschijnen. Dit kruis zal blijven staan totdat je alsnog de juiste toets induwt.

Probeer steeds zo snel mogelijk te antwoorden zonder te veel fouten te maken.

Druk op E of I om verder te gaan.", , ,trials_IAT_attributes.xlsx,2,Positief,Negatief, ,1, ,green,prettig,e,e,3,i,i,blank.png,,,,,,,,,,,,,,,0,0,0,0,0,3,3,3,,,,,,,,,,,,,,,,,,i,1,0.530584007269,None,0,,,50,F,19,64.1593364484,SCIAT IAT and likerts,2016_mrt_02_1040,
green,white,"In deze taak zullen stimuli een voor een op het scherm verschijnen. Jouw taak bestaat erin om op de linkse (E) of rechtse (I) toets te duwen afhankelijk van de categorie waartoe elke stimulus behoort.  Er zijn vier mogelijke categorieen:

(1) POSITIEF
(2) NEGATIEF
(3) CHINESE SYMBOLEN
(4) BLOEMEN ***

Welke categorieen aan welke knop zijn toegewezen, verschilt van fase tot fase. De categorieen die aan de linkerknop zijn toegewezen, zullen in de linker-bovenhoek van het scherm staan. De categorieen die aan de rechterknop zijn toegewezen, zullen in de rechter-bovenhoek van het scherm staan.

Probeer steeds zo snel mogelijk te antwoorden zonder te veel fouten te maken. Wanneer je een fout zou maken zal er een rood kruis verschijnen. Dit kruis zal blijven staan totdat je alsnog de juiste toets induwt.

Probeer steeds zo snel mogelijk te antwoorden zonder te veel fouten te maken.

Druk op E of I om verder te gaan.", , ,trials_IAT_attributes.xlsx,2,Positief,Negatief, ,1, ,green,goed,e,e,3,i,i,blank.png,,,,,,,,,,,,,,,0,0,0,0,0,4,4,4,,,,,,,,,,,,,,,,,,i,1,0.452329833759,None,0,,,50,F,19,64.1593364484,SCIAT IAT and likerts,2016_mrt_02_1040,
green,white,"In deze taak zullen stimuli een voor een op het scherm verschijnen. Jouw taak bestaat erin om op de linkse (E) of rechtse (I) toets te duwen afhankelijk van de categorie waartoe elke stimulus behoort.  Er zijn vier mogelijke categorieen:

(1) POSITIEF
(2) NEGATIEF
(3) CHINESE SYMBOLEN
(4) BLOEMEN ***

Welke categorieen aan welke knop zijn toegewezen, verschilt van fase tot fase. De categorieen die aan de linkerknop zijn toegewezen, zullen in de linker-bovenhoek van het scherm staan. De categorieen die aan de rechterknop zijn toegewezen, zullen in de rechter-bovenhoek van het scherm staan.

Probeer steeds zo snel mogelijk te antwoorden zonder te veel fouten te maken. Wanneer je een fout zou maken zal er een rood kruis verschijnen. Dit kruis zal blijven staan totdat je alsnog de juiste toets induwt.

Probeer steeds zo snel mogelijk te antwoorden zonder te veel fouten te maken.

Druk op E of I om verder te gaan.", , ,trials_IAT_attributes.xlsx,2,Positief,Negatief, ,1, ,green,blij,e,e,3,i,i,blank.png,,,,,,,,,,,,,,,0,0,0,0,0,5,5,1,,,,,,,,,,,,,,,,,,i,1,0.514896507142,None,0,,,50,F,19,64.1593364484,SCIAT IAT and likerts,2016_mrt_02_1040,
green,white,"In deze taak zullen stimuli een voor een op het scherm verschijnen. Jouw taak bestaat erin om op de linkse (E) of rechtse (I) toets te duwen afhankelijk van de categorie waartoe elke stimulus behoort.  Er zijn vier mogelijke categorieen:

(1) POSITIEF
(2) NEGATIEF
(3) CHINESE SYMBOLEN
(4) BLOEMEN ***

Welke categorieen aan welke knop zijn toegewezen, verschilt van fase tot fase. De categorieen die aan de linkerknop zijn toegewezen, zullen in de linker-bovenhoek van het scherm staan. De categorieen die aan de rechterknop zijn toegewezen, zullen in de rechter-bovenhoek van het scherm staan.

Probeer steeds zo snel mogelijk te antwoorden zonder te veel fouten te maken. Wanneer je een fout zou maken zal er een rood kruis verschijnen. Dit kruis zal blijven staan totdat je alsnog de juiste toets induwt.

Probeer steeds zo snel mogelijk te antwoorden zonder te veel fouten te maken.

Druk op E of I om verder te gaan.", , ,trials_IAT_attributes.xlsx,2,Positief,Negatief, ,1, ,green,gemeen,i,i,4,e,e,blank.png,,,,,,,,,,,,,,,0,0,0,0,0,6,6,7,,,,,,,,,,,,,,,,,,e,1,0.561594328843,None,0,,,50,F,19,64.1593364484,SCIAT IAT and likerts,2016_mrt_02_1040,
green,white,"In deze taak zullen stimuli een voor een op het scherm verschijnen. Jouw taak bestaat erin om op de linkse (E) of rechtse (I) toets te duwen afhankelijk van de categorie waartoe elke stimulus behoort.  Er zijn vier mogelijke categorieen:

(1) POSITIEF
(2) NEGATIEF
(3) CHINESE SYMBOLEN
(4) BLOEMEN ***

Welke categorieen aan welke knop zijn toegewezen, verschilt van fase tot fase. De categorieen die aan de linkerknop zijn toegewezen, zullen in de linker-bovenhoek van het scherm staan. De categorieen die aan de rechterknop zijn toegewezen, zullen in de rechter-bovenhoek van het scherm staan.

Probeer steeds zo snel mogelijk te antwoorden zonder te veel fouten te maken. Wanneer je een fout zou maken zal er een rood kruis verschijnen. Dit kruis zal blijven staan totdat je alsnog de juiste toets induwt.

Probeer steeds zo snel mogelijk te antwoorden zonder te veel fouten te maken.

Druk op E of I om verder te gaan.", , ,trials_IAT_attributes.xlsx,2,Positief,Negatief, ,1, ,green,walging,i,i,4,e,e,blank.png,,,,,,,,,,,,,,,0,0,0,0,0,7,7,5,,,,,,,,,,,,,,,,,,e,1,0.577371516963,None,0,,,50,F,19,64.1593364484,SCIAT IAT and likerts,2016_mrt_02_1040,
green,white,"In deze taak zullen stimuli een voor een op het scherm verschijnen. Jouw taak bestaat erin om op de linkse (E) of rechtse (I) toets te duwen afhankelijk van de categorie waartoe elke stimulus behoort.  Er zijn vier mogelijke categorieen:

(1) POSITIEF
(2) NEGATIEF
(3) CHINESE SYMBOLEN
(4) BLOEMEN ***

Welke categorieen aan welke knop zijn toegewezen, verschilt van fase tot fase. De categorieen die aan de linkerknop zijn toegewezen, zullen in de linker-bovenhoek van het scherm staan. De categorieen die aan de rechterknop zijn toegewezen, zullen in de rechter-bovenhoek van het scherm staan.

