subscale,instruction,exemplar,orStimulus,block,nBlockRepeats,attribute2,attribute1,target2,condition,target1,stimulusColour,stimulus,feedbackResponse,feedbackAllowed,trialtype,requiredResponse,requiredAllowed,imageStimulus,likertPre.thisRepN,likertPre.thisTrialN,likertPre.thisN,likertPre.thisIndex,blocks.thisRepN,blocks.thisTrialN,blocks.thisN,blocks.thisIndex,trials.thisRepN,trials.thisTrialN,trials.thisN,trials.thisIndex,likertPost.thisRepN,likertPost.thisTrialN,likertPost.thisN,likertPost.thisIndex,rating.response,requiredResponse.keys,requiredResponse.corr,requiredResponse.rt,feedbackResponse.keys,feedbackResponse.corr,feedbackResponse.rt,participant,gender,age,frameRate,expName,date,
2,"Hoe aangenaam vind je de volgende?
1 = helemaal niet aangenaam
2 = eerder niet aangenaam
3 = onverschillig
4 = eerder aangenaam
5 = heel aangenaam",pic1.jpg,,,,,,,,,,,,,,,,,0,0,0,0,,,,,,,,,,,,,3,,,,,,,27,f,18,60.0288108347,IAT_and_likerts,2015_Dec_01_1626,
2,"Hoe aangenaam vind je de volgende?
1 = helemaal niet aangenaam
2 = eerder niet aangenaam
3 = onverschillig
4 = eerder aangenaam
5 = heel aangenaam",pic2.jpg,,,,,,,,,,,,,,,,,0,1,1,1,,,,,,,,,,,,,3,,,,,,,27,f,18,60.0288108347,IAT_and_likerts,2015_Dec_01_1626,
2,"Hoe aangenaam vind je de volgende?
1 = helemaal niet aangenaam
2 = eerder niet aangenaam
3 = onverschillig
4 = eerder aangenaam
5 = heel aangenaam",pic3.jpg,,,,,,,,,,,,,,,,,0,2,2,2,,,,,,,,,,,,,3,,,,,,,27,f,18,60.0288108347,IAT_and_likerts,2015_Dec_01_1626,
2,"Hoe aangenaam vind je de volgende?
1 = helemaal niet aangenaam
2 = eerder niet aangenaam
3 = onverschillig
4 = eerder aangenaam
5 = heel aangenaam",pic4.jpg,,,,,,,,,,,,,,,,,0,3,3,3,,,,,,,,,,,,,4,,,,,,,27,f,18,60.0288108347,IAT_and_likerts,2015_Dec_01_1626,
2,"Hoe aangenaam vind je de volgende?
1 = helemaal niet aangenaam
2 = eerder niet aangenaam
3 = onverschillig
4 = eerder aangenaam
5 = heel aangenaam",pic5.jpg,,,,,,,,,,,,,,,,,0,4,4,4,,,,,,,,,,,,,3,,,,,,,27,f,18,60.0288108347,IAT_and_likerts,2015_Dec_01_1626,
1,"Hoe aangenaam vind je de volgende?
1 = helemaal niet aangenaam
2 = eerder niet aangenaam
3 = onverschillig
4 = eerder aangenaam
5 = heel aangenaam",insect1.jpg,,,,,,,,,,,,,,,,,0,5,5,5,,,,,,,,,,,,,1,,,,,,,27,f,18,60.0288108347,IAT_and_likerts,2015_Dec_01_1626,
1,"Hoe aangenaam vind je de volgende?
1 = helemaal niet aangenaam
2 = eerder niet aangenaam
3 = onverschillig
4 = eerder aangenaam
5 = heel aangenaam",insect2.jpg,,,,,,,,,,,,,,,,,0,6,6,6,,,,,,,,,,,,,1,,,,,,,27,f,18,60.0288108347,IAT_and_likerts,2015_Dec_01_1626,
1,"Hoe aangenaam vind je de volgende?
1 = helemaal niet aangenaam
2 = eerder niet aangenaam
3 = onverschillig
4 = eerder aangenaam
5 = heel aangenaam",insect3.jpg,,,,,,,,,,,,,,,,,0,7,7,7,,,,,,,,,,,,,1,,,,,,,27,f,18,60.0288108347,IAT_and_likerts,2015_Dec_01_1626,
1,"Hoe aangenaam vind je de volgende?
1 = helemaal niet aangenaam
2 = eerder niet aangenaam
3 = onverschillig
4 = eerder aangenaam
5 = heel aangenaam",insect4.jpg,,,,,,,,,,,,,,,,,0,8,8,8,,,,,,,,,,,,,1,,,,,,,27,f,18,60.0288108347,IAT_and_likerts,2015_Dec_01_1626,
1,"Hoe aangenaam vind je de volgende?
1 = helemaal niet aangenaam
2 = eerder niet aangenaam
3 = onverschillig
4 = eerder aangenaam
5 = heel aangenaam",insect5.jpg,,,,,,,,,,,,,,,,,0,9,9,9,,,,,,,,,,,,,3,,,,,,,27,f,18,60.0288108347,IAT_and_likerts,2015_Dec_01_1626,
,"In deze taak zullen stimuli ÈÈn voor ÈÈn op het scherm verschijnen. Jouw taak bestaat erin om op de linkse (E) of rechtse (I) toets te duwen afhankelijk van de categorie waartoe elke stimulus behoort. Er zijn vier mogelijke categorieÎn:

(1) POSITIEF
(2) NEGATIEF
(3) BLOEMEN 
(4) CHINESE SYMBOLEN

Welke categorieÎn aan welke knop zijn toegewezen, verschilt van fase tot fase. De categorieÎn die aan de linkerknop zijn toegewezen, zullen in de linker-bovenhoek van het scherm staan. De categorieÎn die aan de rechterknop zijn toegewezen, zullen in de rechter-bovenhoek van het scherm staan.

Probeer steeds zo snel mogelijk te antwoorden zonder te veel fouten te maken. Wanneer je een fout zou maken zal er een rood kruis verschijnen. Dit kruis zal blijven staan totdat je alsnog de juiste toets induwt.

Dit is een fase met alleen POSITIEF en NEGATIEF. Probeer steeds zo snel mogelijk te antwoorden zonder te veel fouten te maken.

Druk op E of I om verder te gaan.",, ,Ablock1_insects.xlsx,2,Negatief,Positief, ,3, ,"[-1, 1, -1]",goed,i,i,3,e,e,blank.png,,,,,0,0,0,0,0,0,0,4,,,,,,e,0,1.18242405107,None,0,,27,f,18,60.0288108347,IAT_and_likerts,2015_Dec_01_1626,
,"In deze taak zullen stimuli ÈÈn voor ÈÈn op het scherm verschijnen. Jouw taak bestaat erin om op de linkse (E) of rechtse (I) toets te duwen afhankelijk van de categorie waartoe elke stimulus behoort. Er zijn vier mogelijke categorieÎn:

(1) POSITIEF
(2) NEGATIEF
(3) BLOEMEN 
(4) CHINESE SYMBOLEN

Welke categorieÎn aan welke knop zijn toegewezen, verschilt van fase tot fase. De categorieÎn die aan de linkerknop zijn toegewezen, zullen in de linker-bovenhoek van het scherm staan. De categorieÎn die aan de rechterknop zijn toegewezen, zullen in de rechter-bovenhoek van het scherm staan.

Probeer steeds zo snel mogelijk te antwoorden zonder te veel fouten te maken. Wanneer je een fout zou maken zal er een rood kruis verschijnen. Dit kruis zal blijven staan totdat je alsnog de juiste toets induwt.

Dit is een fase met alleen POSITIEF en NEGATIEF. Probeer steeds zo snel mogelijk te antwoorden zonder te veel fouten te maken.

Druk op E of I om verder te gaan.",, ,Ablock1_insects.xlsx,2,Negatief,Positief, ,3, ,"[-1, 1, -1]",gemeen,e,e,4,i,i,blank.png,,,,,0,0,0,0,0,1,1,7,,,,,,i,0,0.799590527291,None,0,,27,f,18,60.0288108347,IAT_and_likerts,2015_Dec_01_1626,
,"In deze taak zullen stimuli ÈÈn voor ÈÈn op het scherm verschijnen. Jouw taak bestaat erin om op de linkse (E) of rechtse (I) toets te duwen afhankelijk van de categorie waartoe elke stimulus behoort. Er zijn vier mogelijke categorieÎn:

(1) POSITIEF
(2) NEGATIEF
(3) BLOEMEN 
(4) CHINESE SYMBOLEN

Welke categorieÎn aan welke knop zijn toegewezen, verschilt van fase tot fase. De categorieÎn die aan de linkerknop zijn toegewezen, zullen in de linker-bovenhoek van het scherm staan. De categorieÎn die aan de rechterknop zijn toegewezen, zullen in de rechter-bovenhoek van het scherm staan.

Probeer steeds zo snel mogelijk te antwoorden zonder te veel fouten te maken. Wanneer je een fout zou maken zal er een rood kruis verschijnen. Dit kruis zal blijven staan totdat je alsnog de juiste toets induwt.

Dit is een fase met alleen POSITIEF en NEGATIEF. Probeer steeds zo snel mogelijk te antwoorden zonder te veel fouten te maken.

Druk op E of I om verder te gaan.",, ,Ablock1_insects.xlsx,2,Negatief,Positief, ,3, ,"[-1, 1, -1]",blij,i,i,3,e,e,blank.png,,,,,0,0,0,0,0,2,2,1,,,,,,e,0,0.766474458542,None,0,,27,f,18,60.0288108347,IAT_and_likerts,2015_Dec_01_1626,
,"In deze taak zullen stimuli ÈÈn voor ÈÈn op het scherm verschijnen. Jouw taak bestaat erin om op de linkse (E) of rechtse (I) toets te duwen afhankelijk van de categorie waartoe elke stimulus behoort. Er zijn vier mogelijke categorieÎn:

(1) POSITIEF
(2) NEGATIEF
(3) BLOEMEN 
(4) CHINESE SYMBOLEN

Welke categorieÎn aan welke knop zijn toegewezen, verschilt van fase tot fase. De categorieÎn die aan de linkerknop zijn toegewezen, zullen in de linker-bovenhoek van het scherm staan. De categorieÎn die aan de rechterknop zijn toegewezen, zullen in de rechter-bovenhoek van het scherm staan.

Probeer steeds zo snel mogelijk te antwoorden zonder te veel fouten te maken. Wanneer je een fout zou maken zal er een rood kruis verschijnen. Dit kruis zal blijven staan totdat je alsnog de juiste toets induwt.

Dit is een fase met alleen POSITIEF en NEGATIEF. Probeer steeds zo snel mogelijk te antwoorden zonder te veel fouten te maken.

Druk op E of I om verder te gaan.",, ,Ablock1_insects.xlsx,2,Negatief,Positief, ,3, ,"[-1, 1, -1]",walging,e,e,4,i,i,blank.png,,,,,0,0,0,0,0,3,3,5,,,,,,i,0,1.5325647615,None,0,,27,f,18,60.0288108347,IAT_and_likerts,2015_Dec_01_1626,
,"In deze taak zullen stimuli ÈÈn voor ÈÈn op het scherm verschijnen. Jouw taak bestaat erin om op de linkse (E) of rechtse (I) toets te duwen afhankelijk van de categorie waartoe elke stimulus behoort. Er zijn vier mogelijke categorieÎn:

(1) POSITIEF
(2) NEGATIEF
(3) BLOEMEN 
(4) CHINESE SYMBOLEN

Welke categorieÎn aan welke knop zijn toegewezen, verschilt van fase tot fase. De categorieÎn die aan de linkerknop zijn toegewezen, zullen in de linker-bovenhoek van het scherm staan. De categorieÎn die aan de rechterknop zijn toegewezen, zullen in de rechter-bovenhoek van het scherm staan.

Probeer steeds zo snel mogelijk te antwoorden zonder te veel fouten te maken. Wanneer je een fout zou maken zal er een rood kruis verschijnen. Dit kruis zal blijven staan totdat je alsnog de juiste toets induwt.

Dit is een fase met alleen POSITIEF en NEGATIEF. Probeer steeds zo snel mogelijk te antwoorden zonder te veel fouten te maken.

Druk op E of I om verder te gaan.",, ,Ablock1_insects.xlsx,2,Negatief,Positief, ,3, ,"[-1, 1, -1]",vijandig,e,e,4,i,i,blank.png,,,,,0,0,0,0,0,4,4,8,,,,,,i,0,0.68292012985,None,0,,27,f,18,60.0288108347,IAT_and_likerts,2015_Dec_01_1626,
,"In deze taak zullen stimuli ÈÈn voor ÈÈn op het scherm verschijnen. Jouw taak bestaat erin om op de linkse (E) of rechtse (I) toets te duwen afhankelijk van de categorie waartoe elke stimulus behoort. Er zijn vier mogelijke categorieÎn:

(1) POSITIEF
(2) NEGATIEF
(3) BLOEMEN 
(4) CHINESE SYMBOLEN

Welke categorieÎn aan welke knop zijn toegewezen, verschilt van fase tot fase. De categorieÎn die aan de linkerknop zijn toegewezen, zullen in de linker-bovenhoek van het scherm staan. De categorieÎn die aan de rechterknop zijn toegewezen, zullen in de rechter-bovenhoek van het scherm staan.

Probeer steeds zo snel mogelijk te antwoorden zonder te veel fouten te maken. Wanneer je een fout zou maken zal er een rood kruis verschijnen. Dit kruis zal blijven staan totdat je alsnog de juiste toets induwt.

Dit is een fase met alleen POSITIEF en NEGATIEF. Probeer steeds zo snel mogelijk te antwoorden zonder te veel fouten te maken.

Druk op E of I om verder te gaan.",, ,Ablock1_insects.xlsx,2,Negatief,Positief, ,3, ,"[-1, 1, -1]",vriendelijk,i,i,3,e,e,blank.png,,,,,0,0,0,0,0,5,5,2,,,,,,e,0,0.716496598807,None,0,,27,f,18,60.0288108347,IAT_and_likerts,2015_Dec_01_1626,
,"In deze taak zullen stimuli ÈÈn voor ÈÈn op het scherm verschijnen. Jouw taak bestaat erin om op de linkse (E) of rechtse (I) toets te duwen afhankelijk van de categorie waartoe elke stimulus behoort. Er zijn vier mogelijke categorieÎn:

(1) POSITIEF
(2) NEGATIEF
(3) BLOEMEN 
(4) CHINESE SYMBOLEN

Welke categorieÎn aan welke knop zijn toegewezen, verschilt van fase tot fase. De categorieÎn die aan de linkerknop zijn toegewezen, zullen in de linker-bovenhoek van het scherm staan. De categorieÎn die aan de rechterknop zijn toegewezen, zullen in de rechter-bovenhoek van het scherm staan.

Probeer steeds zo snel mogelijk te antwoorden zonder te veel fouten te maken. Wanneer je een fout zou maken zal er een rood kruis verschijnen. Dit kruis zal blijven staan totdat je alsnog de juiste toets induwt.

Dit is een fase met alleen POSITIEF en NEGATIEF. Probeer steeds zo snel mogelijk te antwoorden zonder te veel fouten te maken.

Druk op E of I om verder te gaan.",, ,Ablock1_insects.xlsx,2,Negatief,Positief, ,3, ,"[-1, 1, -1]",geluk,i,i,3,e,e,blank.png,,,,,0,0,0,0,0,6,6,0,,,,,,e,0,0.666419523315,None,0,,27,f,18,60.0288108347,IAT_and_likerts,2015_Dec_01_1626,
,"In deze taak zullen stimuli ÈÈn voor ÈÈn op het scherm verschijnen. Jouw taak bestaat erin om op de linkse (E) of rechtse (I) toets te duwen afhankelijk van de categorie waartoe elke stimulus behoort. Er zijn vier mogelijke categorieÎn:

(1) POSITIEF
(2) NEGATIEF
(3) BLOEMEN 
(4) CHINESE SYMBOLEN

Welke categorieÎn aan welke knop zijn toegewezen, verschilt van fase tot fase. De categorieÎn die aan de linkerknop zijn toegewezen, zullen in de linker-bovenhoek van het scherm staan. De categorieÎn die aan de rechterknop zijn toegewezen, zullen in de rechter-bovenhoek van het scherm staan.

Probeer steeds zo snel mogelijk te antwoorden zonder te veel fouten te maken. Wanneer je een fout zou maken zal er een rood kruis verschijnen. Dit kruis zal blijven staan totdat je alsnog de juiste toets induwt.

Dit is een fase met alleen POSITIEF en NEGATIEF. Probeer steeds zo snel mogelijk te antwoorden zonder te veel fouten te maken.

Druk op E of I om verder te gaan.",, ,Ablock1_insects.xlsx,2,Negatief,Positief, ,3, ,"[-1, 1, -1]",pijn,e,e,4,i,i,blank.png,,,,,0,0,0,0,0,7,7,6,,,,,,i,0,1.03305057657,None,0,,27,f,18,60.0288108347,IAT_and_likerts,2015_Dec_01_1626,
,"In deze taak zullen stimuli ÈÈn voor ÈÈn op het scherm verschijnen. Jouw taak bestaat erin om op de linkse (E) of rechtse (I) toets te duwen afhankelijk van de categorie waartoe elke stimulus behoort. Er zijn vier mogelijke categorieÎn:

(1) POSITIEF
(2) NEGATIEF
(3) BLOEMEN 
(4) CHINESE SYMBOLEN

Welke categorieÎn aan welke knop zijn toegewezen, verschilt van fase tot fase. De categorieÎn die aan de linkerknop zijn toegewezen, zullen in de linker-bovenhoek van het scherm staan. De categorieÎn die aan de rechterknop zijn toegewezen, zullen in de rechter-bovenhoek van het scherm staan.

Probeer steeds zo snel mogelijk te antwoorden zonder te veel fouten te maken. Wanneer je een fout zou maken zal er een rood kruis verschijnen. Dit kruis zal blijven staan totdat je alsnog de juiste toets induwt.

Dit is een fase met alleen POSITIEF en NEGATIEF. Probeer steeds zo snel mogelijk te antwoorden zonder te veel fouten te maken.

Druk op E of I om verder te gaan.",, ,Ablock1_insects.xlsx,2,Negatief,Positief, ,3, ,"[-1, 1, -1]",hatelijk,e,e,4,i,i,blank.png,,,,,0,0,0,0,0,8,8,9,,,,,,i,0,0.583140848252,None,0,,27,f,18,60.0288108347,IAT_and_likerts,2015_Dec_01_1626,
,"In deze taak zullen stimuli ÈÈn voor ÈÈn op het scherm verschijnen. Jouw taak bestaat erin om op de linkse (E) of rechtse (I) toets te duwen afhankelijk van de categorie waartoe elke stimulus behoort. Er zijn vier mogelijke categorieÎn:

(1) POSITIEF
(2) NEGATIEF
(3) BLOEMEN 
(4) CHINESE SYMBOLEN

Welke categorieÎn aan welke knop zijn toegewezen, verschilt van fase tot fase. De categorieÎn die aan de linkerknop zijn toegewezen, zullen in de linker-bovenhoek van het scherm staan. De categorieÎn die aan de rechterknop zijn toegewezen, zullen in de rechter-bovenhoek van het scherm staan.

Probeer steeds zo snel mogelijk te antwoorden zonder te veel fouten te maken. Wanneer je een fout zou maken zal er een rood kruis verschijnen. Dit kruis zal blijven staan totdat je alsnog de juiste toets induwt.

Dit is een fase met alleen POSITIEF en NEGATIEF. Probeer steeds zo snel mogelijk te antwoorden zonder te veel fouten te maken.

Druk op E of I om verder te gaan.",, ,Ablock1_insects.xlsx,2,Negatief,Positief, ,3, ,"[-1, 1, -1]",prettig,i,i,3,e,e,blank.png,,,,,0,0,0,0,0,9,9,3,,,,,,e,0,0.60007253014,None,0,,27,f,18,60.0288108347,IAT_and_likerts,2015_Dec_01_1626,
,"In deze taak zullen stimuli ÈÈn voor ÈÈn op het scherm verschijnen. Jouw taak bestaat erin om op de linkse (E) of rechtse (I) toets te duwen afhankelijk van de categorie waartoe elke stimulus behoort. Er zijn vier mogelijke categorieÎn:

(1) POSITIEF
(2) NEGATIEF
(3) BLOEMEN 
(4) CHINESE SYMBOLEN

Welke categorieÎn aan welke knop zijn toegewezen, verschilt van fase tot fase. De categorieÎn die aan de linkerknop zijn toegewezen, zullen in de linker-bovenhoek van het scherm staan. De categorieÎn die aan de rechterknop zijn toegewezen, zullen in de rechter-bovenhoek van het scherm staan.

Probeer steeds zo snel mogelijk te antwoorden zonder te veel fouten te maken. Wanneer je een fout zou maken zal er een rood kruis verschijnen. Dit kruis zal blijven staan totdat je alsnog de juiste toets induwt.

Dit is een fase met alleen POSITIEF en NEGATIEF. Probeer steeds zo snel mogelijk te antwoorden zonder te veel fouten te maken.

Druk op E of I om verder te gaan.",, ,Ablock1_insects.xlsx,2,Negatief,Positief, ,3, ,"[-1, 1, -1]",hatelijk,e,e,4,i,i,blank.png,,,,,0,0,0,0,1,0,10,9,,,,,,i,0,0.583093928484,None,0,,27,f,18,60.0288108347,IAT_and_likerts,2015_Dec_01_1626,
,"In deze taak zullen stimuli ÈÈn voor ÈÈn op het scherm verschijnen. Jouw taak bestaat erin om op de linkse (E) of rechtse (I) toets te duwen afhankelijk van de categorie waartoe elke stimulus behoort. Er zijn vier mogelijke categorieÎn:

(1) POSITIEF
(2) NEGATIEF
(3) BLOEMEN 
(4) CHINESE SYMBOLEN

Welke categorieÎn aan welke knop zijn toegewezen, verschilt van fase tot fase. De categorieÎn die aan de linkerknop zijn toegewezen, zullen in de linker-bovenhoek van het scherm staan. De categorieÎn die aan de rechterknop zijn toegewezen, zullen in de rechter-bovenhoek van het scherm staan.

Probeer steeds zo snel mogelijk te antwoorden zonder te veel fouten te maken. Wanneer je een fout zou maken zal er een rood kruis verschijnen. Dit kruis zal blijven staan totdat je alsnog de juiste toets induwt.

Dit is een fase met alleen POSITIEF en NEGATIEF. Probeer steeds zo snel mogelijk te antwoorden zonder te veel fouten te maken.

Druk op E of I om verder te gaan.",, ,Ablock1_insects.xlsx,2,Negatief,Positief, ,3, ,"[-1, 1, -1]",vijandig,e,e,4,i,i,blank.png,,,,,0,0,0,0,1,1,11,8,,,,,,i,0,0.649618337027,None,0,,27,f,18,60.0288108347,IAT_and_likerts,2015_Dec_01_1626,
,"In deze taak zullen stimuli ÈÈn voor ÈÈn op het scherm verschijnen. Jouw taak bestaat erin om op de linkse (E) of rechtse (I) toets te duwen afhankelijk van de categorie waartoe elke stimulus behoort. Er zijn vier mogelijke categorieÎn:

(1) POSITIEF
(2) NEGATIEF
(3) BLOEMEN 
(4) CHINESE SYMBOLEN

Welke categorieÎn aan welke knop zijn toegewezen, verschilt van fase tot fase. De categorieÎn die aan de linkerknop zijn toegewezen, zullen in de linker-bovenhoek van het scherm staan. De categorieÎn die aan de rechterknop zijn toegewezen, zullen in de rechter-bovenhoek van het scherm staan.

Probeer steeds zo snel mogelijk te antwoorden zonder te veel fouten te maken. Wanneer je een fout zou maken zal er een rood kruis verschijnen. Dit kruis zal blijven staan totdat je alsnog de juiste toets induwt.

Dit is een fase met alleen POSITIEF en NEGATIEF. Probeer steeds zo snel mogelijk te antwoorden zonder te veel fouten te maken.

Druk op E of I om verder te gaan.",, ,Ablock1_insects.xlsx,2,Negatief,Positief, ,3, ,"[-1, 1, -1]",prettig,i,i,3,e,e,blank.png,,,,,0,0,0,0,1,2,12,3,,,,,,e,0,0.633158296538,None,0,,27,f,18,60.0288108347,IAT_and_likerts,2015_Dec_01_1626,
,"In deze taak zullen stimuli ÈÈn voor ÈÈn op het scherm verschijnen. Jouw taak bestaat erin om op de linkse (E) of rechtse (I) toets te duwen afhankelijk van de categorie waartoe elke stimulus behoort. Er zijn vier mogelijke categorieÎn:

(1) POSITIEF
(2) NEGATIEF
(3) BLOEMEN 
(4) CHINESE SYMBOLEN

Welke categorieÎn aan welke knop zijn toegewezen, verschilt van fase tot fase. De categorieÎn die aan de linkerknop zijn toegewezen, zullen in de linker-bovenhoek van het scherm staan. De categorieÎn die aan de rechterknop zijn toegewezen, zullen in de rechter-bovenhoek van het scherm staan.

Probeer steeds zo snel mogelijk te antwoorden zonder te veel fouten te maken. Wanneer je een fout zou maken zal er een rood kruis verschijnen. Dit kruis zal blijven staan totdat je alsnog de juiste toets induwt.

Dit is een fase met alleen POSITIEF en NEGATIEF. Probeer steeds zo snel mogelijk te antwoorden zonder te veel fouten te maken.

Druk op E of I om verder te gaan.",, ,Ablock1_insects.xlsx,2,Negatief,Positief, ,3, ,"[-1, 1, -1]",geluk,i,i,3,e,e,blank.png,,,,,0,0,0,0,1,3,13,0,,,,,,e,0,0.600155128477,None,0,,27,f,18,60.0288108347,IAT_and_likerts,2015_Dec_01_1626,
,"In deze taak zullen stimuli ÈÈn voor ÈÈn op het scherm verschijnen. Jouw taak bestaat erin om op de linkse (E) of rechtse (I) toets te duwen afhankelijk van de categorie waartoe elke stimulus behoort. Er zijn vier mogelijke categorieÎn:

(1) POSITIEF
(2) NEGATIEF
(3) BLOEMEN 
(4) CHINESE SYMBOLEN

Welke categorieÎn aan welke knop zijn toegewezen, verschilt van fase tot fase. De categorieÎn die aan de linkerknop zijn toegewezen, zullen in de linker-bovenhoek van het scherm staan. De categorieÎn die aan de rechterknop zijn toegewezen, zullen in de rechter-bovenhoek van het scherm staan.

Probeer steeds zo snel mogelijk te antwoorden zonder te veel fouten te maken. Wanneer je een fout zou maken zal er een rood kruis verschijnen. Dit kruis zal blijven staan totdat je alsnog de juiste toets induwt.

Dit is een fase met alleen POSITIEF en NEGATIEF. Probeer steeds zo snel mogelijk te antwoorden zonder te veel fouten te maken.

Druk op E of I om verder te gaan.",, ,Ablock1_insects.xlsx,2,Negatief,Positief, ,3, ,"[-1, 1, -1]",goed,i,i,3,e,e,blank.png,,,,,0,0,0,0,1,4,14,4,,,,,,e,0,0.55001891453,None,0,,27,f,18,60.0288108347,IAT_and_likerts,2015_Dec_01_1626,
,"In deze taak zullen stimuli ÈÈn voor ÈÈn op het scherm verschijnen. Jouw taak bestaat erin om op de linkse (E) of rechtse (I) toets te duwen afhankelijk van de categorie waartoe elke stimulus behoort. Er zijn vier mogelijke categorieÎn:

(1) POSITIEF
(2) NEGATIEF
(3) BLOEMEN 
(4) CHINESE SYMBOLEN

Welke categorieÎn aan welke knop zijn toegewezen, verschilt van fase tot fase. De categorieÎn die aan de linkerknop zijn toegewezen, zullen in de linker-bovenhoek van het scherm staan. De categorieÎn die aan de rechterknop zijn toegewezen, zullen in de rechter-bovenhoek van het scherm staan.

Probeer steeds zo snel mogelijk te antwoorden zonder te veel fouten te maken. Wanneer je een fout zou maken zal er een rood kruis verschijnen. Dit kruis zal blijven staan totdat je alsnog de juiste toets induwt.

Dit is een fase met alleen POSITIEF en NEGATIEF. Probeer steeds zo snel mogelijk te antwoorden zonder te veel fouten te maken.

Druk op E of I om verder te gaan.",, ,Ablock1_insects.xlsx,2,Negatief,Positief, ,3, ,"[-1, 1, -1]",blij,i,i,3,e,e,blank.png,,,,,0,0,0,0,1,5,15,1,,,,,,e,0,0.534321320243,None,0,,27,f,18,60.0288108347,IAT_and_likerts,2015_Dec_01_1626,
,"In deze taak zullen stimuli ÈÈn voor ÈÈn op het scherm verschijnen. Jouw taak bestaat erin om op de linkse (E) of rechtse (I) toets te duwen afhankelijk van de categorie waartoe elke stimulus behoort. Er zijn vier mogelijke categorieÎn:

(1) POSITIEF
(2) NEGATIEF
(3) BLOEMEN 
(4) CHINESE SYMBOLEN

Welke categorieÎn aan welke knop zijn toegewezen, verschilt van fase tot fase. De categorieÎn die aan de linkerknop zijn toegewezen, zullen in de linker-bovenhoek van het scherm staan. De categorieÎn die aan de rechterknop zijn toegewezen, zullen in de rechter-bovenhoek van het scherm staan.

Probeer steeds zo snel mogelijk te antwoorden zonder te veel fouten te maken. Wanneer je een fout zou maken zal er een rood kruis verschijnen. Dit kruis zal blijven staan totdat je alsnog de juiste toets induwt.

Dit is een fase met alleen POSITIEF en NEGATIEF. Probeer steeds zo snel mogelijk te antwoorden zonder te veel fouten te maken.

Druk op E of I om verder te gaan.",, ,Ablock1_insects.xlsx,2,Negatief,Positief, ,3, ,"[-1, 1, -1]",gemeen,e,e,4,i,i,blank.png,,,,,0,0,0,0,1,6,16,7,,,,,,i,0,0.516072952416,None,0,,27,f,18,60.0288108347,IAT_and_likerts,2015_Dec_01_1626,
,"In deze taak zullen stimuli ÈÈn voor ÈÈn op het scherm verschijnen. Jouw taak bestaat erin om op de linkse (E) of rechtse (I) toets te duwen afhankelijk van de categorie waartoe elke stimulus behoort. Er zijn vier mogelijke categorieÎn:

(1) POSITIEF
(2) NEGATIEF
(3) BLOEMEN 
(4) CHINESE SYMBOLEN

Welke categorieÎn aan welke knop zijn toegewezen, verschilt van fase tot fase. De categorieÎn die aan de linkerknop zijn toegewezen, zullen in de linker-bovenhoek van het scherm staan. De categorieÎn die aan de rechterknop zijn toegewezen, zullen in de rechter-bovenhoek van het scherm staan.

Probeer steeds zo snel mogelijk te antwoorden zonder te veel fouten te maken. Wanneer je een fout zou maken zal er een rood kruis verschijnen. Dit kruis zal blijven staan totdat je alsnog de juiste toets induwt.

Dit is een fase met alleen POSITIEF en NEGATIEF. Probeer steeds zo snel mogelijk te antwoorden zonder te veel fouten te maken.

Druk op E of I om verder te gaan.",, ,Ablock1_insects.xlsx,2,Negatief,Positief, ,3, ,"[-1, 1, -1]",pijn,e,e,4,i,i,blank.png,,,,,0,0,0,0,1,7,17,6,,,,,,i,0,0.550199751129,None,0,,27,f,18,60.0288108347,IAT_and_likerts,2015_Dec_01_1626,
,"In deze taak zullen stimuli ÈÈn voor ÈÈn op het scherm verschijnen. Jouw taak bestaat erin om op de linkse (E) of rechtse (I) toets te duwen afhankelijk van de categorie waartoe elke stimulus behoort. Er zijn vier mogelijke categorieÎn:

(1) POSITIEF
(2) NEGATIEF
(3) BLOEMEN 
(4) CHINESE SYMBOLEN

Welke categorieÎn aan welke knop zijn toegewezen, verschilt van fase tot fase. De categorieÎn die aan de linkerknop zijn toegewezen, zullen in de linker-bovenhoek van het scherm staan. De categorieÎn die aan de rechterknop zijn toegewezen, zullen in de rechter-bovenhoek van het scherm staan.

Probeer steeds zo snel mogelijk te antwoorden zonder te veel fouten te maken. Wanneer je een fout zou maken zal er een rood kruis verschijnen. Dit kruis zal blijven staan totdat je alsnog de juiste toets induwt.

Dit is een fase met alleen POSITIEF en NEGATIEF. Probeer steeds zo snel mogelijk te antwoorden zonder te veel fouten te maken.

Druk op E of I om verder te gaan.",, ,Ablock1_insects.xlsx,2,Negatief,Positief, ,3, ,"[-1, 1, -1]",walging,e,e,4,i,i,blank.png,,,,,0,0,0,0,1,8,18,5,,,,,,i,0,0.51639943579,None,0,,27,f,18,60.0288108347,IAT_and_likerts,2015_Dec_01_1626,
,"In deze taak zullen stimuli ÈÈn voor ÈÈn op het scherm verschijnen. Jouw taak bestaat erin om op de linkse (E) of rechtse (I) toets te duwen afhankelijk van de categorie waartoe elke stimulus behoort. Er zijn vier mogelijke categorieÎn:

(1) POSITIEF
(2) NEGATIEF
(3) BLOEMEN 
(4) CHINESE SYMBOLEN

Welke categorieÎn aan welke knop zijn toegewezen, verschilt van fase tot fase. De categorieÎn die aan de linkerknop zijn toegewezen, zullen in de linker-bovenhoek van het scherm staan. De categorieÎn die aan de rechterknop zijn toegewezen, zullen in de rechter-bovenhoek van het scherm staan.

Probeer steeds zo snel mogelijk te antwoorden zonder te veel fouten te maken. Wanneer je een fout zou maken zal er een rood kruis verschijnen. Dit kruis zal blijven staan totdat je alsnog de juiste toets induwt.

Dit is een fase met alleen POSITIEF en NEGATIEF. Probeer steeds zo snel mogelijk te antwoorden zonder te veel fouten te maken.

Druk op E of I om verder te gaan.",, ,Ablock1_insects.xlsx,2,Negatief,Positief, ,3, ,"[-1, 1, -1]",vriendelijk,i,i,3,e,e,blank.png,,,,,0,0,0,0,1,9,19,2,,,,,,e,0,0.550128882733,None,0,,27,f,18,60.0288108347,IAT_and_likerts,2015_Dec_01_1626,
,"Dit is een fase met alleen BLOEMEN en CHINESE SYMBOLEN. Probeer steeds zo snel mogelijk te antwoorden zonder te veel fouten te maken.

Druk op E of I om verder te gaan.",, ,Ablock2_insects.xlsx,2, , ,Chinese symbolen,3,Insect,"[1, 1, 1]", ,i,i,1,e,e,insect3.jpg,,,,,0,1,1,1,0,0,0,2,,,,,,e,0,0.93282897843,None,0,,27,f,18,60.0288108347,IAT_and_likerts,2015_Dec_01_1626,
,"Dit is een fase met alleen BLOEMEN en CHINESE SYMBOLEN. Probeer steeds zo snel mogelijk te antwoorden zonder te veel fouten te maken.

Druk op E of I om verder te gaan.",, ,Ablock2_insects.xlsx,2, , ,Chinese symbolen,3,Insect,"[1, 1, 1]", ,e,e,2,i,i,pic3.jpg,,,,,0,1,1,1,0,1,1,7,,,,,,i,0,0.450048043886,None,0,,27,f,18,60.0288108347,IAT_and_likerts,2015_Dec_01_1626,
,"Dit is een fase met alleen BLOEMEN en CHINESE SYMBOLEN. Probeer steeds zo snel mogelijk te antwoorden zonder te veel fouten te maken.

Druk op E of I om verder te gaan.",, ,Ablock2_insects.xlsx,2, , ,Chinese symbolen,3,Insect,"[1, 1, 1]", ,e,e,2,i,i,pic4.jpg,,,,,0,1,1,1,0,2,2,8,,,,,,i,0,0.500085530823,None,0,,27,f,18,60.0288108347,IAT_and_likerts,2015_Dec_01_1626,
,"Dit is een fase met alleen BLOEMEN en CHINESE SYMBOLEN. Probeer steeds zo snel mogelijk te antwoorden zonder te veel fouten te maken.

Druk op E of I om verder te gaan.",, ,Ablock2_insects.xlsx,2, , ,Chinese symbolen,3,Insect,"[1, 1, 1]", ,e,e,2,i,i,pic2.jpg,,,,,0,1,1,1,0,3,3,6,,,,,,i,0,0.449964468053,None,0,,27,f,18,60.0288108347,IAT_and_likerts,2015_Dec_01_1626,
,"Dit is een fase met alleen BLOEMEN en CHINESE SYMBOLEN. Probeer steeds zo snel mogelijk te antwoorden zonder te veel fouten te maken.

Druk op E of I om verder te gaan.",, ,Ablock2_insects.xlsx,2, , ,Chinese symbolen,3,Insect,"[1, 1, 1]", ,i,i,1,e,e,insect2.jpg,,,,,0,1,1,1,0,4,4,1,,,,,,e,0,0.466196263427,None,0,,27,f,18,60.0288108347,IAT_and_likerts,2015_Dec_01_1626,
,"Dit is een fase met alleen BLOEMEN en CHINESE SYMBOLEN. Probeer steeds zo snel mogelijk te antwoorden zonder te veel fouten te maken.

Druk op E of I om verder te gaan.",, ,Ablock2_insects.xlsx,2, , ,Chinese symbolen,3,Insect,"[1, 1, 1]", ,i,i,1,e,e,insect5.jpg,,,,,0,1,1,1,0,5,5,4,,,,,,e,0,0.549779428226,None,0,,27,f,18,60.0288108347,IAT_and_likerts,2015_Dec_01_1626,
,"Dit is een fase met alleen BLOEMEN en CHINESE SYMBOLEN. Probeer steeds zo snel mogelijk te antwoorden zonder te veel fouten te maken.

Druk op E of I om verder te gaan.",, ,Ablock2_insects.xlsx,2, , ,Chinese symbolen,3,Insect,"[1, 1, 1]", ,e,e,2,i,i,pic1.jpg,,,,,0,1,1,1,0,6,6,5,,,,,,i,0,0.466821860309,None,0,,27,f,18,60.0288108347,IAT_and_likerts,2015_Dec_01_1626,
,"Dit is een fase met alleen BLOEMEN en CHINESE SYMBOLEN. Probeer steeds zo snel mogelijk te antwoorden zonder te veel fouten te maken.

Druk op E of I om verder te gaan.",, ,Ablock2_insects.xlsx,2, , ,Chinese symbolen,3,Insect,"[1, 1, 1]", ,e,e,2,i,i,pic5.jpg,,,,,0,1,1,1,0,7,7,9,,,,,,i,0,0.449605238591,None,0,,27,f,18,60.0288108347,IAT_and_likerts,2015_Dec_01_1626,
,"Dit is een fase met alleen BLOEMEN en CHINESE SYMBOLEN. Probeer steeds zo snel mogelijk te antwoorden zonder te veel fouten te maken.

Druk op E of I om verder te gaan.",, ,Ablock2_insects.xlsx,2, , ,Chinese symbolen,3,Insect,"[1, 1, 1]", ,i,i,1,e,e,insect1.jpg,,,,,0,1,1,1,0,8,8,0,,,,,,e,0,0.466609743866,None,0,,27,f,18,60.0288108347,IAT_and_likerts,2015_Dec_01_1626,
,"Dit is een fase met alleen BLOEMEN en CHINESE SYMBOLEN. Probeer steeds zo snel mogelijk te antwoorden zonder te veel fouten te maken.

Druk op E of I om verder te gaan.",, ,Ablock2_insects.xlsx,2, , ,Chinese symbolen,3,Insect,"[1, 1, 1]", ,i,i,1,e,e,insect4.jpg,,,,,0,1,1,1,0,9,9,3,,,,,,e,0,1.03383208393,None,0,,27,f,18,60.0288108347,IAT_and_likerts,2015_Dec_01_1626,
,"Dit is een fase met alleen BLOEMEN en CHINESE SYMBOLEN. Probeer steeds zo snel mogelijk te antwoorden zonder te veel fouten te maken.

Druk op E of I om verder te gaan.",, ,Ablock2_insects.xlsx,2, , ,Chinese symbolen,3,Insect,"[1, 1, 1]", ,e,e,2,i,i,pic3.jpg,,,,,0,1,1,1,1,0,10,7,,,,,,i,0,0.53404517787,None,0,,27,f,18,60.0288108347,IAT_and_likerts,2015_Dec_01_1626,
,"Dit is een fase met alleen BLOEMEN en CHINESE SYMBOLEN. Probeer steeds zo snel mogelijk te antwoorden zonder te veel fouten te maken.

Druk op E of I om verder te gaan.",, ,Ablock2_insects.xlsx,2, , ,Chinese symbolen,3,Insect,"[1, 1, 1]", ,e,e,2,i,i,pic1.jpg,,,,,0,1,1,1,1,1,11,5,,,,,,i,0,0.366411116856,None,0,,27,f,18,60.0288108347,IAT_and_likerts,2015_Dec_01_1626,
,"Dit is een fase met alleen BLOEMEN en CHINESE SYMBOLEN. Probeer steeds zo snel mogelijk te antwoorden zonder te veel fouten te maken.

Druk op E of I om verder te gaan.",, ,Ablock2_insects.xlsx,2, , ,Chinese symbolen,3,Insect,"[1, 1, 1]", ,e,e,2,i,i,pic5.jpg,,,,,0,1,1,1,1,2,12,9,,,,,,i,0,0.333085375403,None,0,,27,f,18,60.0288108347,IAT_and_likerts,2015_Dec_01_1626,
,"Dit is een fase met alleen BLOEMEN en CHINESE SYMBOLEN. Probeer steeds zo snel mogelijk te antwoorden zonder te veel fouten te maken.

Druk op E of I om verder te gaan.",, ,Ablock2_insects.xlsx,2, , ,Chinese symbolen,3,Insect,"[1, 1, 1]", ,i,i,1,e,e,insect1.jpg,,,,,0,1,1,1,1,3,13,0,,,,,,e,0,0.466675724789,None,0,,27,f,18,60.0288108347,IAT_and_likerts,2015_Dec_01_1626,
,"Dit is een fase met alleen BLOEMEN en CHINESE SYMBOLEN. Probeer steeds zo snel mogelijk te antwoorden zonder te veel fouten te maken.

Druk op E of I om verder te gaan.",, ,Ablock2_insects.xlsx,2, , ,Chinese symbolen,3,Insect,"[1, 1, 1]", ,e,e,2,i,i,pic4.jpg,,,,,0,1,1,1,1,4,14,8,,,,,,i,0,0.366783053752,None,0,,27,f,18,60.0288108347,IAT_and_likerts,2015_Dec_01_1626,
,"Dit is een fase met alleen BLOEMEN en CHINESE SYMBOLEN. Probeer steeds zo snel mogelijk te antwoorden zonder te veel fouten te maken.

Druk op E of I om verder te gaan.",, ,Ablock2_insects.xlsx,2, , ,Chinese symbolen,3,Insect,"[1, 1, 1]", ,i,i,1,e,e,insect2.jpg,,,,,0,1,1,1,1,5,15,1,,,,,,e,0,0.516446844304,None,0,,27,f,18,60.0288108347,IAT_and_likerts,2015_Dec_01_1626,
,"Dit is een fase met alleen BLOEMEN en CHINESE SYMBOLEN. Probeer steeds zo snel mogelijk te antwoorden zonder te veel fouten te maken.

Druk op E of I om verder te gaan.",, ,Ablock2_insects.xlsx,2, , ,Chinese symbolen,3,Insect,"[1, 1, 1]", ,i,i,1,e,e,insect3.jpg,,,,,0,1,1,1,1,6,16,2,,,,,,e,0,0.499589940793,None,0,,27,f,18,60.0288108347,IAT_and_likerts,2015_Dec_01_1626,
,"Dit is een fase met alleen BLOEMEN en CHINESE SYMBOLEN. Probeer steeds zo snel mogelijk te antwoorden zonder te veel fouten te maken.

Druk op E of I om verder te gaan.",, ,Ablock2_insects.xlsx,2, , ,Chinese symbolen,3,Insect,"[1, 1, 1]", ,i,i,1,e,e,insect4.jpg,,,,,0,1,1,1,1,7,17,3,,,,,,e,0,0.516601777281,None,0,,27,f,18,60.0288108347,IAT_and_likerts,2015_Dec_01_1626,
,"Dit is een fase met alleen BLOEMEN en CHINESE SYMBOLEN. Probeer steeds zo snel mogelijk te antwoorden zonder te veel fouten te maken.

Druk op E of I om verder te gaan.",, ,Ablock2_insects.xlsx,2, , ,Chinese symbolen,3,Insect,"[1, 1, 1]", ,i,i,1,e,e,insect5.jpg,,,,,0,1,1,1,1,8,18,4,,,,,,e,0,0.483383071545,None,0,,27,f,18,60.0288108347,IAT_and_likerts,2015_Dec_01_1626,
,"Dit is een fase met alleen BLOEMEN en CHINESE SYMBOLEN. Probeer steeds zo snel mogelijk te antwoorden zonder te veel fouten te maken.

Druk op E of I om verder te gaan.",, ,Ablock2_insects.xlsx,2, , ,Chinese symbolen,3,Insect,"[1, 1, 1]", ,e,e,2,i,i,pic2.jpg,,,,,0,1,1,1,1,9,19,6,,,,,,i,0,0.4832613734,None,0,,27,f,18,60.0288108347,IAT_and_likerts,2015_Dec_01_1626,
,"Dit is een fase met alle stimuli. Probeer steeds zo snel mogelijk te antwoorden zonder te veel fouten te maken.

Druk op E of I om verder te gaan.",,or,Ablock3and4_insects.xlsx,1,Negatief,Positief,Chinese symbolen,3,Insect,"[1, 1, 1]", ,i,i,1,e,e,insect4.jpg,,,,,0,2,2,2,0,0,0,3,,,,,,e,0,0.79897421661,None,0,,27,f,18,60.0288108347,IAT_and_likerts,2015_Dec_01_1626,
,"Dit is een fase met alle stimuli. Probeer steeds zo snel mogelijk te antwoorden zonder te veel fouten te maken.

Druk op E of I om verder te gaan.",,or,Ablock3and4_insects.xlsx,1,Negatief,Positief,Chinese symbolen,3,Insect,"[-1, 1, -1]",geluk,i,i,3,e,e,blank.png,,,,,0,2,2,2,0,1,1,10,,,,,,e,0,0.749930842219,None,0,,27,f,18,60.0288108347,IAT_and_likerts,2015_Dec_01_1626,
,"Dit is een fase met alle stimuli. Probeer steeds zo snel mogelijk te antwoorden zonder te veel fouten te maken.

Druk op E of I om verder te gaan.",,or,Ablock3and4_insects.xlsx,1,Negatief,Positief,Chinese symbolen,3,Insect,"[-1, 1, -1]",blij,i,i,3,e,e,blank.png,,,,,0,2,2,2,0,2,2,11,,,,,,e,0,0.599941057044,None,0,,27,f,18,60.0288108347,IAT_and_likerts,2015_Dec_01_1626,
,"Dit is een fase met alle stimuli. Probeer steeds zo snel mogelijk te antwoorden zonder te veel fouten te maken.

Druk op E of I om verder te gaan.",,or,Ablock3and4_insects.xlsx,1,Negatief,Positief,Chinese symbolen,3,Insect,"[1, 1, 1]", ,e,e,2,i,i,pic4.jpg,,,,,0,2,2,2,0,3,3,8,,,,,,i,0,0.732958105535,None,0,,27,f,18,60.0288108347,IAT_and_likerts,2015_Dec_01_1626,
,"Dit is een fase met alle stimuli. Probeer steeds zo snel mogelijk te antwoorden zonder te veel fouten te maken.

Druk op E of I om verder te gaan.",,or,Ablock3and4_insects.xlsx,1,Negatief,Positief,Chinese symbolen,3,Insect,"[1, 1, 1]", ,e,e,2,i,i,pic1.jpg,,,,,0,2,2,2,0,4,4,5,,,,,,i,0,0.582895008225,None,0,,27,f,18,60.0288108347,IAT_and_likerts,2015_Dec_01_1626,
,"Dit is een fase met alle stimuli. Probeer steeds zo snel mogelijk te antwoorden zonder te veel fouten te maken.

Druk op E of I om verder te gaan.",,or,Ablock3and4_insects.xlsx,1,Negatief,Positief,Chinese symbolen,3,Insect,"[1, 1, 1]", ,i,i,1,e,e,insect1.jpg,,,,,0,2,2,2,0,5,5,0,,,,,,e,0,0.683069686605,None,0,,27,f,18,60.0288108347,IAT_and_likerts,2015_Dec_01_1626,
,"Dit is een fase met alle stimuli. Probeer steeds zo snel mogelijk te antwoorden zonder te veel fouten te maken.

Druk op E of I om verder te gaan.",,or,Ablock3and4_insects.xlsx,1,Negatief,Positief,Chinese symbolen,3,Insect,"[1, 1, 1]", ,i,i,1,e,e,insect5.jpg,,,,,0,2,2,2,0,6,6,4,,,,,,e,0,0.633324470709,None,0,,27,f,18,60.0288108347,IAT_and_likerts,2015_Dec_01_1626,
,"Dit is een fase met alle stimuli. Probeer steeds zo snel mogelijk te antwoorden zonder te veel fouten te maken.

Druk op E of I om verder te gaan.",,or,Ablock3and4_insects.xlsx,1,Negatief,Positief,Chinese symbolen,3,Insect,"[-1, 1, -1]",prettig,i,i,3,e,e,blank.png,,,,,0,2,2,2,0,7,7,13,,,,,,e,0,0.783123644336,None,0,,27,f,18,60.0288108347,IAT_and_likerts,2015_Dec_01_1626,
,"Dit is een fase met alle stimuli. Probeer steeds zo snel mogelijk te antwoorden zonder te veel fouten te maken.

Druk op E of I om verder te gaan.",,or,Ablock3and4_insects.xlsx,1,Negatief,Positief,Chinese symbolen,3,Insect,"[-1, 1, -1]",walging,e,e,4,i,i,blank.png,,,,,0,2,2,2,0,8,8,15,,,,,,i,0,0.499901761739,None,0,,27,f,18,60.0288108347,IAT_and_likerts,2015_Dec_01_1626,
,"Dit is een fase met alle stimuli. Probeer steeds zo snel mogelijk te antwoorden zonder te veel fouten te maken.

Druk op E of I om verder te gaan.",,or,Ablock3and4_insects.xlsx,1,Negatief,Positief,Chinese symbolen,3,Insect,"[-1, 1, -1]",goed,i,i,3,e,e,blank.png,,,,,0,2,2,2,0,9,9,14,,,,,,e,0,0.599962561937,None,0,,27,f,18,60.0288108347,IAT_and_likerts,2015_Dec_01_1626,
,"Dit is een fase met alle stimuli. Probeer steeds zo snel mogelijk te antwoorden zonder te veel fouten te maken.

Druk op E of I om verder te gaan.",,or,Ablock3and4_insects.xlsx,1,Negatief,Positief,Chinese symbolen,3,Insect,"[-1, 1, -1]",vijandig,e,e,4,i,i,blank.png,,,,,0,2,2,2,0,10,10,18,,,,,,i,0,0.599811538939,None,0,,27,f,18,60.0288108347,IAT_and_likerts,2015_Dec_01_1626,
,"Dit is een fase met alle stimuli. Probeer steeds zo snel mogelijk te antwoorden zonder te veel fouten te maken.

Druk op E of I om verder te gaan.",,or,Ablock3and4_insects.xlsx,1,Negatief,Positief,Chinese symbolen,3,Insect,"[-1, 1, -1]",gemeen,e,e,4,i,i,blank.png,,,,,0,2,2,2,0,11,11,17,,,,,,i,0,0.616468544695,None,0,,27,f,18,60.0288108347,IAT_and_likerts,2015_Dec_01_1626,
,"Dit is een fase met alle stimuli. Probeer steeds zo snel mogelijk te antwoorden zonder te veel fouten te maken.

Druk op E of I om verder te gaan.",,or,Ablock3and4_insects.xlsx,1,Negatief,Positief,Chinese symbolen,3,Insect,"[1, 1, 1]", ,e,e,2,i,i,pic3.jpg,,,,,0,2,2,2,0,12,12,7,,,,,,i,0,0.699903618981,None,0,,27,f,18,60.0288108347,IAT_and_likerts,2015_Dec_01_1626,
,"Dit is een fase met alle stimuli. Probeer steeds zo snel mogelijk te antwoorden zonder te veel fouten te maken.

Druk op E of I om verder te gaan.",,or,Ablock3and4_insects.xlsx,1,Negatief,Positief,Chinese symbolen,3,Insect,"[-1, 1, -1]",hatelijk,e,e,4,i,i,blank.png,,,,,0,2,2,2,0,13,13,19,,,,,,i,0,0.583212694142,None,0,,27,f,18,60.0288108347,IAT_and_likerts,2015_Dec_01_1626,
,"Dit is een fase met alle stimuli. Probeer steeds zo snel mogelijk te antwoorden zonder te veel fouten te maken.

Druk op E of I om verder te gaan.",,or,Ablock3and4_insects.xlsx,1,Negatief,Positief,Chinese symbolen,3,Insect,"[1, 1, 1]", ,i,i,1,e,e,insect2.jpg,,,,,0,2,2,2,0,14,14,1,,,,,,e,0,0.566513167347,None,0,,27,f,18,60.0288108347,IAT_and_likerts,2015_Dec_01_1626,
,"Dit is een fase met alle stimuli. Probeer steeds zo snel mogelijk te antwoorden zonder te veel fouten te maken.

Druk op E of I om verder te gaan.",,or,Ablock3and4_insects.xlsx,1,Negatief,Positief,Chinese symbolen,3,Insect,"[-1, 1, -1]",pijn,e,e,4,i,i,blank.png,,,,,0,2,2,2,0,15,15,16,,,,,,i,0,0.649713154055,None,0,,27,f,18,60.0288108347,IAT_and_likerts,2015_Dec_01_1626,
,"Dit is een fase met alle stimuli. Probeer steeds zo snel mogelijk te antwoorden zonder te veel fouten te maken.

Druk op E of I om verder te gaan.",,or,Ablock3and4_insects.xlsx,1,Negatief,Positief,Chinese symbolen,3,Insect,"[1, 1, 1]", ,e,e,2,i,i,pic2.jpg,,,,,0,2,2,2,0,16,16,6,,,,,,i,0,0.783086010773,None,0,,27,f,18,60.0288108347,IAT_and_likerts,2015_Dec_01_1626,
,"Dit is een fase met alle stimuli. Probeer steeds zo snel mogelijk te antwoorden zonder te veel fouten te maken.

Druk op E of I om verder te gaan.",,or,Ablock3and4_insects.xlsx,1,Negatief,Positief,Chinese symbolen,3,Insect,"[1, 1, 1]", ,e,e,2,i,i,pic5.jpg,,,,,0,2,2,2,0,17,17,9,,,,,,i,0,0.516296310054,None,0,,27,f,18,60.0288108347,IAT_and_likerts,2015_Dec_01_1626,
,"Dit is een fase met alle stimuli. Probeer steeds zo snel mogelijk te antwoorden zonder te veel fouten te maken.

Druk op E of I om verder te gaan.",,or,Ablock3and4_insects.xlsx,1,Negatief,Positief,Chinese symbolen,3,Insect,"[1, 1, 1]", ,i,i,1,e,e,insect3.jpg,,,,,0,2,2,2,0,18,18,2,,,,,,e,0,0.616499824539,None,0,,27,f,18,60.0288108347,IAT_and_likerts,2015_Dec_01_1626,
,"Dit is een fase met alle stimuli. Probeer steeds zo snel mogelijk te antwoorden zonder te veel fouten te maken.

Druk op E of I om verder te gaan.",,or,Ablock3and4_insects.xlsx,1,Negatief,Positief,Chinese symbolen,3,Insect,"[-1, 1, -1]",vriendelijk,i,i,3,e,e,blank.png,,,,,0,2,2,2,0,19,19,12,,,,,,e,0,0.716703827773,None,0,,27,f,18,60.0288108347,IAT_and_likerts,2015_Dec_01_1626,
,"Dit is een fase met alle stimuli. Het is hetzelfde als de vorige fase.

Probeer steeds zo snel mogelijk te antwoorden zonder te veel fouten te maken.

Druk op E of I om verder te gaan.",,or,Ablock3and4_insects.xlsx,2,Negatief,Positief,Chinese symbolen,3,Insect,"[1, 1, 1]", ,i,i,1,e,e,insect3.jpg,,,,,0,3,3,3,0,0,0,2,,,,,,e,0,0.666960078121,None,0,,27,f,18,60.0288108347,IAT_and_likerts,2015_Dec_01_1626,
,"Dit is een fase met alle stimuli. Het is hetzelfde als de vorige fase.

Probeer steeds zo snel mogelijk te antwoorden zonder te veel fouten te maken.

Druk op E of I om verder te gaan.",,or,Ablock3and4_insects.xlsx,2,Negatief,Positief,Chinese symbolen,3,Insect,"[1, 1, 1]", ,e,e,2,i,i,pic5.jpg,,,,,0,3,3,3,0,1,1,9,,,,,,i,0,0.567336218248,None,0,,27,f,18,60.0288108347,IAT_and_likerts,2015_Dec_01_1626,
,"Dit is een fase met alle stimuli. Het is hetzelfde als de vorige fase.

Probeer steeds zo snel mogelijk te antwoorden zonder te veel fouten te maken.

Druk op E of I om verder te gaan.",,or,Ablock3and4_insects.xlsx,2,Negatief,Positief,Chinese symbolen,3,Insect,"[-1, 1, -1]",pijn,e,e,4,i,i,blank.png,,,,,0,3,3,3,0,2,2,16,,,,,,i,0,0.832877168939,None,0,,27,f,18,60.0288108347,IAT_and_likerts,2015_Dec_01_1626,
,"Dit is een fase met alle stimuli. Het is hetzelfde als de vorige fase.

Probeer steeds zo snel mogelijk te antwoorden zonder te veel fouten te maken.

Druk op E of I om verder te gaan.",,or,Ablock3and4_insects.xlsx,2,Negatief,Positief,Chinese symbolen,3,Insect,"[-1, 1, -1]",prettig,i,i,3,e,e,blank.png,,,,,0,3,3,3,0,3,3,13,,,,,,e,0,0.549952444862,None,0,,27,f,18,60.0288108347,IAT_and_likerts,2015_Dec_01_1626,
,"Dit is een fase met alle stimuli. Het is hetzelfde als de vorige fase.

Probeer steeds zo snel mogelijk te antwoorden zonder te veel fouten te maken.

Druk op E of I om verder te gaan.",,or,Ablock3and4_insects.xlsx,2,Negatief,Positief,Chinese symbolen,3,Insect,"[1, 1, 1]", ,e,e,2,i,i,pic3.jpg,,,,,0,3,3,3,0,4,4,7,,,,,,i,0,0.649778646228,None,0,,27,f,18,60.0288108347,IAT_and_likerts,2015_Dec_01_1626,
,"Dit is een fase met alle stimuli. Het is hetzelfde als de vorige fase.

Probeer steeds zo snel mogelijk te antwoorden zonder te veel fouten te maken.

Druk op E of I om verder te gaan.",,or,Ablock3and4_insects.xlsx,2,Negatief,Positief,Chinese symbolen,3,Insect,"[1, 1, 1]", ,i,i,1,e,e,insect4.jpg,,,,,0,3,3,3,0,5,5,3,,,,,,e,0,0.599878008608,None,0,,27,f,18,60.0288108347,IAT_and_likerts,2015_Dec_01_1626,
,"Dit is een fase met alle stimuli. Het is hetzelfde als de vorige fase.

Probeer steeds zo snel mogelijk te antwoorden zonder te veel fouten te maken.

Druk op E of I om verder te gaan.",,or,Ablock3and4_insects.xlsx,2,Negatief,Positief,Chinese symbolen,3,Insect,"[1, 1, 1]", ,i,i,1,e,e,insect5.jpg,,,,,0,3,3,3,0,6,6,4,,,,,,e,0,0.700656778978,None,0,,27,f,18,60.0288108347,IAT_and_likerts,2015_Dec_01_1626,
,"Dit is een fase met alle stimuli. Het is hetzelfde als de vorige fase.

Probeer steeds zo snel mogelijk te antwoorden zonder te veel fouten te maken.

Druk op E of I om verder te gaan.",,or,Ablock3and4_insects.xlsx,2,Negatief,Positief,Chinese symbolen,3,Insect,"[-1, 1, -1]",vriendelijk,i,i,3,e,e,blank.png,,,,,0,3,3,3,0,7,7,12,,,,,,e,0,0.799861782189,None,0,,27,f,18,60.0288108347,IAT_and_likerts,2015_Dec_01_1626,
,"Dit is een fase met alle stimuli. Het is hetzelfde als de vorige fase.

Probeer steeds zo snel mogelijk te antwoorden zonder te veel fouten te maken.

Druk op E of I om verder te gaan.",,or,Ablock3and4_insects.xlsx,2,Negatief,Positief,Chinese symbolen,3,Insect,"[1, 1, 1]", ,e,e,2,i,i,pic4.jpg,,,,,0,3,3,3,0,8,8,8,,,,,,i,0,0.949533881447,None,0,,27,f,18,60.0288108347,IAT_and_likerts,2015_Dec_01_1626,
,"Dit is een fase met alle stimuli. Het is hetzelfde als de vorige fase.

Probeer steeds zo snel mogelijk te antwoorden zonder te veel fouten te maken.

Druk op E of I om verder te gaan.",,or,Ablock3and4_insects.xlsx,2,Negatief,Positief,Chinese symbolen,3,Insect,"[1, 1, 1]", ,i,i,1,e,e,insect1.jpg,,,,,0,3,3,3,0,9,9,0,,,,,,e,0,0.617345357827,None,0,,27,f,18,60.0288108347,IAT_and_likerts,2015_Dec_01_1626,
,"Dit is een fase met alle stimuli. Het is hetzelfde als de vorige fase.

Probeer steeds zo snel mogelijk te antwoorden zonder te veel fouten te maken.

Druk op E of I om verder te gaan.",,or,Ablock3and4_insects.xlsx,2,Negatief,Positief,Chinese symbolen,3,Insect,"[-1, 1, -1]",geluk,i,i,3,e,e,blank.png,,,,,0,3,3,3,0,10,10,10,,,,,,e,0,1.16606615882,None,0,,27,f,18,60.0288108347,IAT_and_likerts,2015_Dec_01_1626,
,"Dit is een fase met alle stimuli. Het is hetzelfde als de vorige fase.

Probeer steeds zo snel mogelijk te antwoorden zonder te veel fouten te maken.

Druk op E of I om verder te gaan.",,or,Ablock3and4_insects.xlsx,2,Negatief,Positief,Chinese symbolen,3,Insect,"[1, 1, 1]", ,i,i,1,e,e,insect2.jpg,,,,,0,3,3,3,0,11,11,1,,,,,,e,0,0.716167182947,None,0,,27,f,18,60.0288108347,IAT_and_likerts,2015_Dec_01_1626,
,"Dit is een fase met alle stimuli. Het is hetzelfde als de vorige fase.

Probeer steeds zo snel mogelijk te antwoorden zonder te veel fouten te maken.

Druk op E of I om verder te gaan.",,or,Ablock3and4_insects.xlsx,2,Negatief,Positief,Chinese symbolen,3,Insect,"[-1, 1, -1]",hatelijk,e,e,4,i,i,blank.png,,,,,0,3,3,3,0,12,12,19,,,,,,i,0,0.716491222582,None,0,,27,f,18,60.0288108347,IAT_and_likerts,2015_Dec_01_1626,
,"Dit is een fase met alle stimuli. Het is hetzelfde als de vorige fase.

Probeer steeds zo snel mogelijk te antwoorden zonder te veel fouten te maken.

Druk op E of I om verder te gaan.",,or,Ablock3and4_insects.xlsx,2,Negatief,Positief,Chinese symbolen,3,Insect,"[-1, 1, -1]",vijandig,e,e,4,i,i,blank.png,,,,,0,3,3,3,0,13,13,18,,,,,,i,0,0.649237602674,None,0,,27,f,18,60.0288108347,IAT_and_likerts,2015_Dec_01_1626,
,"Dit is een fase met alle stimuli. Het is hetzelfde als de vorige fase.

Probeer steeds zo snel mogelijk te antwoorden zonder te veel fouten te maken.

Druk op E of I om verder te gaan.",,or,Ablock3and4_insects.xlsx,2,Negatief,Positief,Chinese symbolen,3,Insect,"[-1, 1, -1]",goed,i,i,3,e,e,blank.png,,,,,0,3,3,3,0,14,14,14,,,,,,e,0,0.533281265427,None,0,,27,f,18,60.0288108347,IAT_and_likerts,2015_Dec_01_1626,
,"Dit is een fase met alle stimuli. Het is hetzelfde als de vorige fase.

Probeer steeds zo snel mogelijk te antwoorden zonder te veel fouten te maken.

Druk op E of I om verder te gaan.",,or,Ablock3and4_insects.xlsx,2,Negatief,Positief,Chinese symbolen,3,Insect,"[1, 1, 1]", ,e,e,2,i,i,pic2.jpg,,,,,0,3,3,3,0,15,15,6,,,,,,i,0,1.08262033209,None,0,,27,f,18,60.0288108347,IAT_and_likerts,2015_Dec_01_1626,
,"Dit is een fase met alle stimuli. Het is hetzelfde als de vorige fase.

Probeer steeds zo snel mogelijk te antwoorden zonder te veel fouten te maken.

Druk op E of I om verder te gaan.",,or,Ablock3and4_insects.xlsx,2,Negatief,Positief,Chinese symbolen,3,Insect,"[-1, 1, -1]",gemeen,e,e,4,i,i,blank.png,,,,,0,3,3,3,0,16,16,17,,,,,,i,0,1.01580365251,None,0,,27,f,18,60.0288108347,IAT_and_likerts,2015_Dec_01_1626,
,"Dit is een fase met alle stimuli. Het is hetzelfde als de vorige fase.

Probeer steeds zo snel mogelijk te antwoorden zonder te veel fouten te maken.

Druk op E of I om verder te gaan.",,or,Ablock3and4_insects.xlsx,2,Negatief,Positief,Chinese symbolen,3,Insect,"[1, 1, 1]", ,e,e,2,i,i,pic1.jpg,,,,,0,3,3,3,0,17,17,5,,,,,,i,0,0.583356385927,None,0,,27,f,18,60.0288108347,IAT_and_likerts,2015_Dec_01_1626,
,"Dit is een fase met alle stimuli. Het is hetzelfde als de vorige fase.

Probeer steeds zo snel mogelijk te antwoorden zonder te veel fouten te maken.

Druk op E of I om verder te gaan.",,or,Ablock3and4_insects.xlsx,2,Negatief,Positief,Chinese symbolen,3,Insect,"[-1, 1, -1]",walging,e,e,4,i,i,blank.png,,,,,0,3,3,3,0,18,18,15,,,,,,i,0,0.516814382472,None,0,,27,f,18,60.0288108347,IAT_and_likerts,2015_Dec_01_1626,
,"Dit is een fase met alle stimuli. Het is hetzelfde als de vorige fase.

Probeer steeds zo snel mogelijk te antwoorden zonder te veel fouten te maken.

Druk op E of I om verder te gaan.",,or,Ablock3and4_insects.xlsx,2,Negatief,Positief,Chinese symbolen,3,Insect,"[-1, 1, -1]",blij,i,i,3,e,e,blank.png,,,,,0,3,3,3,0,19,19,11,,,,,,e,0,0.56656497459,None,0,,27,f,18,60.0288108347,IAT_and_likerts,2015_Dec_01_1626,
,"Dit is een fase met alle stimuli. Het is hetzelfde als de vorige fase.

Probeer steeds zo snel mogelijk te antwoorden zonder te veel fouten te maken.

Druk op E of I om verder te gaan.",,or,Ablock3and4_insects.xlsx,2,Negatief,Positief,Chinese symbolen,3,Insect,"[-1, 1, -1]",prettig,i,i,3,e,e,blank.png,,,,,0,3,3,3,1,0,20,13,,,,,,e,0,0.583175060579,None,0,,27,f,18,60.0288108347,IAT_and_likerts,2015_Dec_01_1626,
,"Dit is een fase met alle stimuli. Het is hetzelfde als de vorige fase.

Probeer steeds zo snel mogelijk te antwoorden zonder te veel fouten te maken.

Druk op E of I om verder te gaan.",,or,Ablock3and4_insects.xlsx,2,Negatief,Positief,Chinese symbolen,3,Insect,"[1, 1, 1]", ,i,i,1,e,e,insect3.jpg,,,,,0,3,3,3,1,1,21,2,,,,,,e,0,0.666538288973,None,0,,27,f,18,60.0288108347,IAT_and_likerts,2015_Dec_01_1626,
,"Dit is een fase met alle stimuli. Het is hetzelfde als de vorige fase.

Probeer steeds zo snel mogelijk te antwoorden zonder te veel fouten te maken.

Druk op E of I om verder te gaan.",,or,Ablock3and4_insects.xlsx,2,Negatief,Positief,Chinese symbolen,3,Insect,"[-1, 1, -1]",goed,i,i,3,e,e,blank.png,,,,,0,3,3,3,1,2,22,14,,,,,,e,0,0.56668374025,None,0,,27,f,18,60.0288108347,IAT_and_likerts,2015_Dec_01_1626,
,"Dit is een fase met alle stimuli. Het is hetzelfde als de vorige fase.

Probeer steeds zo snel mogelijk te antwoorden zonder te veel fouten te maken.

Druk op E of I om verder te gaan.",,or,Ablock3and4_insects.xlsx,2,Negatief,Positief,Chinese symbolen,3,Insect,"[-1, 1, -1]",vriendelijk,i,i,3,e,e,blank.png,,,,,0,3,3,3,1,3,23,12,,,,,,e,0,0.566594788192,None,0,,27,f,18,60.0288108347,IAT_and_likerts,2015_Dec_01_1626,
,"Dit is een fase met alle stimuli. Het is hetzelfde als de vorige fase.

Probeer steeds zo snel mogelijk te antwoorden zonder te veel fouten te maken.

Druk op E of I om verder te gaan.",,or,Ablock3and4_insects.xlsx,2,Negatief,Positief,Chinese symbolen,3,Insect,"[1, 1, 1]", ,i,i,1,e,e,insect4.jpg,,,,,0,3,3,3,1,4,24,3,,,,,,e,0,0.765783369485,None,0,,27,f,18,60.0288108347,IAT_and_likerts,2015_Dec_01_1626,
,"Dit is een fase met alle stimuli. Het is hetzelfde als de vorige fase.

Probeer steeds zo snel mogelijk te antwoorden zonder te veel fouten te maken.

Druk op E of I om verder te gaan.",,or,Ablock3and4_insects.xlsx,2,Negatief,Positief,Chinese symbolen,3,Insect,"[-1, 1, -1]",pijn,e,e,4,i,i,blank.png,,,,,0,3,3,3,1,5,25,16,,,,,,i,0,0.633228676188,None,0,,27,f,18,60.0288108347,IAT_and_likerts,2015_Dec_01_1626,
,"Dit is een fase met alle stimuli. Het is hetzelfde als de vorige fase.

Probeer steeds zo snel mogelijk te antwoorden zonder te veel fouten te maken.

Druk op E of I om verder te gaan.",,or,Ablock3and4_insects.xlsx,2,Negatief,Positief,Chinese symbolen,3,Insect,"[1, 1, 1]", ,e,e,2,i,i,pic3.jpg,,,,,0,3,3,3,1,6,26,7,,,,,,i,0,0.41668027014,None,0,,27,f,18,60.0288108347,IAT_and_likerts,2015_Dec_01_1626,
,"Dit is een fase met alle stimuli. Het is hetzelfde als de vorige fase.

Probeer steeds zo snel mogelijk te antwoorden zonder te veel fouten te maken.

Druk op E of I om verder te gaan.",,or,Ablock3and4_insects.xlsx,2,Negatief,Positief,Chinese symbolen,3,Insect,"[-1, 1, -1]",vijandig,e,e,4,i,i,blank.png,,,,,0,3,3,3,1,7,27,18,,,,,,i,0,0.566490196214,None,0,,27,f,18,60.0288108347,IAT_and_likerts,2015_Dec_01_1626,
,"Dit is een fase met alle stimuli. Het is hetzelfde als de vorige fase.

Probeer steeds zo snel mogelijk te antwoorden zonder te veel fouten te maken.

Druk op E of I om verder te gaan.",,or,Ablock3and4_insects.xlsx,2,Negatief,Positief,Chinese symbolen,3,Insect,"[1, 1, 1]", ,e,e,2,i,i,pic5.jpg,,,,,0,3,3,3,1,8,28,9,,,,,,i,0,0.433429649187,None,0,,27,f,18,60.0288108347,IAT_and_likerts,2015_Dec_01_1626,
,"Dit is een fase met alle stimuli. Het is hetzelfde als de vorige fase.

Probeer steeds zo snel mogelijk te antwoorden zonder te veel fouten te maken.

Druk op E of I om verder te gaan.",,or,Ablock3and4_insects.xlsx,2,Negatief,Positief,Chinese symbolen,3,Insect,"[1, 1, 1]", ,i,i,1,e,e,insect5.jpg,,,,,0,3,3,3,1,9,29,4,,,,,,e,0,0.616402075028,None,0,,27,f,18,60.0288108347,IAT_and_likerts,2015_Dec_01_1626,
,"Dit is een fase met alle stimuli. Het is hetzelfde als de vorige fase.

Probeer steeds zo snel mogelijk te antwoorden zonder te veel fouten te maken.

Druk op E of I om verder te gaan.",,or,Ablock3and4_insects.xlsx,2,Negatief,Positief,Chinese symbolen,3,Insect,"[1, 1, 1]", ,i,i,1,e,e,insect2.jpg,,,,,0,3,3,3,1,10,30,1,,,,,,e,0,0.483397733971,None,0,,27,f,18,60.0288108347,IAT_and_likerts,2015_Dec_01_1626,
,"Dit is een fase met alle stimuli. Het is hetzelfde als de vorige fase.

Probeer steeds zo snel mogelijk te antwoorden zonder te veel fouten te maken.

Druk op E of I om verder te gaan.",,or,Ablock3and4_insects.xlsx,2,Negatief,Positief,Chinese symbolen,3,Insect,"[-1, 1, -1]",hatelijk,e,e,4,i,i,blank.png,,,,,0,3,3,3,1,11,31,19,,,,,,i,0,0.63315634155,None,0,,27,f,18,60.0288108347,IAT_and_likerts,2015_Dec_01_1626,
,"Dit is een fase met alle stimuli. Het is hetzelfde als de vorige fase.

Probeer steeds zo snel mogelijk te antwoorden zonder te veel fouten te maken.

Druk op E of I om verder te gaan.",,or,Ablock3and4_insects.xlsx,2,Negatief,Positief,Chinese symbolen,3,Insect,"[1, 1, 1]", ,i,i,1,e,e,insect1.jpg,,,,,0,3,3,3,1,12,32,0,,,,,,e,0,0.533215773254,None,0,,27,f,18,60.0288108347,IAT_and_likerts,2015_Dec_01_1626,
,"Dit is een fase met alle stimuli. Het is hetzelfde als de vorige fase.

Probeer steeds zo snel mogelijk te antwoorden zonder te veel fouten te maken.

Druk op E of I om verder te gaan.",,or,Ablock3and4_insects.xlsx,2,Negatief,Positief,Chinese symbolen,3,Insect,"[1, 1, 1]", ,e,e,2,i,i,pic1.jpg,,,,,0,3,3,3,1,13,33,5,,,,,,i,0,0.582874969576,None,0,,27,f,18,60.0288108347,IAT_and_likerts,2015_Dec_01_1626,
,"Dit is een fase met alle stimuli. Het is hetzelfde als de vorige fase.

Probeer steeds zo snel mogelijk te antwoorden zonder te veel fouten te maken.

Druk op E of I om verder te gaan.",,or,Ablock3and4_insects.xlsx,2,Negatief,Positief,Chinese symbolen,3,Insect,"[1, 1, 1]", ,e,e,2,i,i,pic2.jpg,,,,,0,3,3,3,1,14,34,6,,,,,,i,0,0.549360082814,None,0,,27,f,18,60.0288108347,IAT_and_likerts,2015_Dec_01_1626,
,"Dit is een fase met alle stimuli. Het is hetzelfde als de vorige fase.

Probeer steeds zo snel mogelijk te antwoorden zonder te veel fouten te maken.

Druk op E of I om verder te gaan.",,or,Ablock3and4_insects.xlsx,2,Negatief,Positief,Chinese symbolen,3,Insect,"[-1, 1, -1]",gemeen,e,e,4,i,i,blank.png,,,,,0,3,3,3,1,15,35,17,,,,,,i,0,0.599875076123,None,0,,27,f,18,60.0288108347,IAT_and_likerts,2015_Dec_01_1626,
,"Dit is een fase met alle stimuli. Het is hetzelfde als de vorige fase.

Probeer steeds zo snel mogelijk te antwoorden zonder te veel fouten te maken.

Druk op E of I om verder te gaan.",,or,Ablock3and4_insects.xlsx,2,Negatief,Positief,Chinese symbolen,3,Insect,"[-1, 1, -1]",walging,e,e,4,i,i,blank.png,,,,,0,3,3,3,1,16,36,15,,,,,,i,0,0.51669659431,None,0,,27,f,18,60.0288108347,IAT_and_likerts,2015_Dec_01_1626,
,"Dit is een fase met alle stimuli. Het is hetzelfde als de vorige fase.

Probeer steeds zo snel mogelijk te antwoorden zonder te veel fouten te maken.

Druk op E of I om verder te gaan.",,or,Ablock3and4_insects.xlsx,2,Negatief,Positief,Chinese symbolen,3,Insect,"[1, 1, 1]", ,e,e,2,i,i,pic4.jpg,,,,,0,3,3,3,1,17,37,8,,,,,,i,0,0.533185470904,None,0,,27,f,18,60.0288108347,IAT_and_likerts,2015_Dec_01_1626,
,"Dit is een fase met alle stimuli. Het is hetzelfde als de vorige fase.

Probeer steeds zo snel mogelijk te antwoorden zonder te veel fouten te maken.

Druk op E of I om verder te gaan.",,or,Ablock3and4_insects.xlsx,2,Negatief,Positief,Chinese symbolen,3,Insect,"[-1, 1, -1]",geluk,i,i,3,e,e,blank.png,,,,,0,3,3,3,1,18,38,10,,,,,,e,0,0.583265967627,None,0,,27,f,18,60.0288108347,IAT_and_likerts,2015_Dec_01_1626,
,"Dit is een fase met alle stimuli. Het is hetzelfde als de vorige fase.

Probeer steeds zo snel mogelijk te antwoorden zonder te veel fouten te maken.

Druk op E of I om verder te gaan.",,or,Ablock3and4_insects.xlsx,2,Negatief,Positief,Chinese symbolen,3,Insect,"[-1, 1, -1]",blij,i,i,3,e,e,blank.png,,,,,0,3,3,3,1,19,39,11,,,,,,e,0,0.566867998081,None,0,,27,f,18,60.0288108347,IAT_and_likerts,2015_Dec_01_1626,
,"Dit is een fase met alleen BLOEMEN en CHINESE SYMBOLEN.
Opgepast, de responsen werden omgewisseld!

Probeer steeds zo snel mogelijk te antwoorden zonder te veel fouten te maken.

Druk op E of I om verder te gaan.",, ,Ablock5_insects.xlsx,4, , ,Insect,3,Chinese symbolen,"[1, 1, 1]", ,e,e,1,i,i,insect2.jpg,,,,,0,4,4,4,0,0,0,1,,,,,,i,0,1.01647616916,None,0,,27,f,18,60.0288108347,IAT_and_likerts,2015_Dec_01_1626,
,"Dit is een fase met alleen BLOEMEN en CHINESE SYMBOLEN.
Opgepast, de responsen werden omgewisseld!

Probeer steeds zo snel mogelijk te antwoorden zonder te veel fouten te maken.

Druk op E of I om verder te gaan.",, ,Ablock5_insects.xlsx,4, , ,Insect,3,Chinese symbolen,"[1, 1, 1]", ,i,i,2,e,e,pic1.jpg,,,,,0,4,4,4,0,1,1,5,,,,,,e,0,0.516618883446,None,0,,27,f,18,60.0288108347,IAT_and_likerts,2015_Dec_01_1626,
,"Dit is een fase met alleen BLOEMEN en CHINESE SYMBOLEN.
Opgepast, de responsen werden omgewisseld!

Probeer steeds zo snel mogelijk te antwoorden zonder te veel fouten te maken.

Druk op E of I om verder te gaan.",, ,Ablock5_insects.xlsx,4, , ,Insect,3,Chinese symbolen,"[1, 1, 1]", ,i,i,2,e,e,pic2.jpg,,,,,0,4,4,4,0,2,2,6,,,,,,e,0,0.599746535514,None,0,,27,f,18,60.0288108347,IAT_and_likerts,2015_Dec_01_1626,
,"Dit is een fase met alleen BLOEMEN en CHINESE SYMBOLEN.
Opgepast, de responsen werden omgewisseld!

Probeer steeds zo snel mogelijk te antwoorden zonder te veel fouten te maken.

Druk op E of I om verder te gaan.",, ,Ablock5_insects.xlsx,4, , ,Insect,3,Chinese symbolen,"[1, 1, 1]", ,e,e,1,i,i,insect4.jpg,,,,,0,4,4,4,0,3,3,3,,,,,,i,0,0.716407646749,None,0,,27,f,18,60.0288108347,IAT_and_likerts,2015_Dec_01_1626,
,"Dit is een fase met alleen BLOEMEN en CHINESE SYMBOLEN.
Opgepast, de responsen werden omgewisseld!

Probeer steeds zo snel mogelijk te antwoorden zonder te veel fouten te maken.

Druk op E of I om verder te gaan.",, ,Ablock5_insects.xlsx,4, , ,Insect,3,Chinese symbolen,"[1, 1, 1]", ,e,e,1,i,i,insect5.jpg,,,,,0,4,4,4,0,4,4,4,,,,,,i,0,0.816177642146,None,0,,27,f,18,60.0288108347,IAT_and_likerts,2015_Dec_01_1626,
,"Dit is een fase met alleen BLOEMEN en CHINESE SYMBOLEN.
Opgepast, de responsen werden omgewisseld!

Probeer steeds zo snel mogelijk te antwoorden zonder te veel fouten te maken.

Druk op E of I om verder te gaan.",, ,Ablock5_insects.xlsx,4, , ,Insect,3,Chinese symbolen,"[1, 1, 1]", ,e,e,1,i,i,insect3.jpg,,,,,0,4,4,4,0,5,5,2,,,,,,i,0,0.449721071765,None,0,,27,f,18,60.0288108347,IAT_and_likerts,2015_Dec_01_1626,
,"Dit is een fase met alleen BLOEMEN en CHINESE SYMBOLEN.
Opgepast, de responsen werden omgewisseld!

Probeer steeds zo snel mogelijk te antwoorden zonder te veel fouten te maken.

Druk op E of I om verder te gaan.",, ,Ablock5_insects.xlsx,4, , ,Insect,3,Chinese symbolen,"[1, 1, 1]", ,e,e,1,i,i,insect1.jpg,,,,,0,4,4,4,0,6,6,0,,,,,,i,0,0.416778997149,None,0,,27,f,18,60.0288108347,IAT_and_likerts,2015_Dec_01_1626,
,"Dit is een fase met alleen BLOEMEN en CHINESE SYMBOLEN.
Opgepast, de responsen werden omgewisseld!

Probeer steeds zo snel mogelijk te antwoorden zonder te veel fouten te maken.

Druk op E of I om verder te gaan.",, ,Ablock5_insects.xlsx,4, , ,Insect,3,Chinese symbolen,"[1, 1, 1]", ,i,i,2,e,e,pic4.jpg,,,,,0,4,4,4,0,7,7,8,,,,,,e,0,0.44998695044,None,0,,27,f,18,60.0288108347,IAT_and_likerts,2015_Dec_01_1626,
,"Dit is een fase met alleen BLOEMEN en CHINESE SYMBOLEN.
Opgepast, de responsen werden omgewisseld!

Probeer steeds zo snel mogelijk te antwoorden zonder te veel fouten te maken.

Druk op E of I om verder te gaan.",, ,Ablock5_insects.xlsx,4, , ,Insect,3,Chinese symbolen,"[1, 1, 1]", ,i,i,2,e,e,pic5.jpg,,,,,0,4,4,4,0,8,8,9,,,,,,e,0,0.416735009867,None,0,,27,f,18,60.0288108347,IAT_and_likerts,2015_Dec_01_1626,
,"Dit is een fase met alleen BLOEMEN en CHINESE SYMBOLEN.
Opgepast, de responsen werden omgewisseld!

Probeer steeds zo snel mogelijk te antwoorden zonder te veel fouten te maken.

Druk op E of I om verder te gaan.",, ,Ablock5_insects.xlsx,4, , ,Insect,3,Chinese symbolen,"[1, 1, 1]", ,i,i,2,e,e,pic3.jpg,,,,,0,4,4,4,0,9,9,7,,,,,,e,0,0.416648012802,None,0,,27,f,18,60.0288108347,IAT_and_likerts,2015_Dec_01_1626,
,"Dit is een fase met alleen BLOEMEN en CHINESE SYMBOLEN.
Opgepast, de responsen werden omgewisseld!

Probeer steeds zo snel mogelijk te antwoorden zonder te veel fouten te maken.

Druk op E of I om verder te gaan.",, ,Ablock5_insects.xlsx,4, , ,Insect,3,Chinese symbolen,"[1, 1, 1]", ,i,i,2,e,e,pic4.jpg,,,,,0,4,4,4,1,0,10,8,,,,,,e,0,0.383298811465,None,0,,27,f,18,60.0288108347,IAT_and_likerts,2015_Dec_01_1626,
,"Dit is een fase met alleen BLOEMEN en CHINESE SYMBOLEN.
Opgepast, de responsen werden omgewisseld!

Probeer steeds zo snel mogelijk te antwoorden zonder te veel fouten te maken.

Druk op E of I om verder te gaan.",, ,Ablock5_insects.xlsx,4, , ,Insect,3,Chinese symbolen,"[1, 1, 1]", ,e,e,1,i,i,insect5.jpg,,,,,0,4,4,4,1,1,11,4,,,,,,i,0,0.50006207094,None,0,,27,f,18,60.0288108347,IAT_and_likerts,2015_Dec_01_1626,
,"Dit is een fase met alleen BLOEMEN en CHINESE SYMBOLEN.
Opgepast, de responsen werden omgewisseld!

Probeer steeds zo snel mogelijk te antwoorden zonder te veel fouten te maken.

Druk op E of I om verder te gaan.",, ,Ablock5_insects.xlsx,4, , ,Insect,3,Chinese symbolen,"[1, 1, 1]", ,e,e,1,i,i,insect3.jpg,,,,,0,4,4,4,1,2,12,2,,,,,,i,0,0.483264794633,None,0,,27,f,18,60.0288108347,IAT_and_likerts,2015_Dec_01_1626,
,"Dit is een fase met alleen BLOEMEN en CHINESE SYMBOLEN.
Opgepast, de responsen werden omgewisseld!

Probeer steeds zo snel mogelijk te antwoorden zonder te veel fouten te maken.

Druk op E of I om verder te gaan.",, ,Ablock5_insects.xlsx,4, , ,Insect,3,Chinese symbolen,"[1, 1, 1]", ,i,i,2,e,e,pic3.jpg,,,,,0,4,4,4,1,3,13,7,,,,,,e,0,0.466631737507,None,0,,27,f,18,60.0288108347,IAT_and_likerts,2015_Dec_01_1626,
,"Dit is een fase met alleen BLOEMEN en CHINESE SYMBOLEN.
Opgepast, de responsen werden omgewisseld!

Probeer steeds zo snel mogelijk te antwoorden zonder te veel fouten te maken.

Druk op E of I om verder te gaan.",, ,Ablock5_insects.xlsx,4, , ,Insect,3,Chinese symbolen,"[1, 1, 1]", ,i,i,2,e,e,pic2.jpg,,,,,0,4,4,4,1,4,14,6,,,,,,e,0,0.39979355303,None,0,,27,f,18,60.0288108347,IAT_and_likerts,2015_Dec_01_1626,
,"Dit is een fase met alleen BLOEMEN en CHINESE SYMBOLEN.
Opgepast, de responsen werden omgewisseld!

Probeer steeds zo snel mogelijk te antwoorden zonder te veel fouten te maken.

Druk op E of I om verder te gaan.",, ,Ablock5_insects.xlsx,4, , ,Insect,3,Chinese symbolen,"[1, 1, 1]", ,i,i,2,e,e,pic1.jpg,,,,,0,4,4,4,1,5,15,5,,,,,,e,0,0.416597183055,None,0,,27,f,18,60.0288108347,IAT_and_likerts,2015_Dec_01_1626,
,"Dit is een fase met alleen BLOEMEN en CHINESE SYMBOLEN.
Opgepast, de responsen werden omgewisseld!

Probeer steeds zo snel mogelijk te antwoorden zonder te veel fouten te maken.

Druk op E of I om verder te gaan.",, ,Ablock5_insects.xlsx,4, , ,Insect,3,Chinese symbolen,"[1, 1, 1]", ,i,i,2,e,e,pic5.jpg,,,,,0,4,4,4,1,6,16,9,,,,,,e,0,0.383310052657,None,0,,27,f,18,60.0288108347,IAT_and_likerts,2015_Dec_01_1626,
,"Dit is een fase met alleen BLOEMEN en CHINESE SYMBOLEN.
Opgepast, de responsen werden omgewisseld!

Probeer steeds zo snel mogelijk te antwoorden zonder te veel fouten te maken.

Druk op E of I om verder te gaan.",, ,Ablock5_insects.xlsx,4, , ,Insect,3,Chinese symbolen,"[1, 1, 1]", ,e,e,1,i,i,insect2.jpg,,,,,0,4,4,4,1,7,17,1,,,,,,i,0,0.483400666455,None,0,,27,f,18,60.0288108347,IAT_and_likerts,2015_Dec_01_1626,
,"Dit is een fase met alleen BLOEMEN en CHINESE SYMBOLEN.
Opgepast, de responsen werden omgewisseld!

Probeer steeds zo snel mogelijk te antwoorden zonder te veel fouten te maken.

Druk op E of I om verder te gaan.",, ,Ablock5_insects.xlsx,4, , ,Insect,3,Chinese symbolen,"[1, 1, 1]", ,e,e,1,i,i,insect1.jpg,,,,,0,4,4,4,1,8,18,0,,,,,,i,0,0.466615120089,None,0,,27,f,18,60.0288108347,IAT_and_likerts,2015_Dec_01_1626,
,"Dit is een fase met alleen BLOEMEN en CHINESE SYMBOLEN.
Opgepast, de responsen werden omgewisseld!

Probeer steeds zo snel mogelijk te antwoorden zonder te veel fouten te maken.

Druk op E of I om verder te gaan.",, ,Ablock5_insects.xlsx,4, , ,Insect,3,Chinese symbolen,"[1, 1, 1]", ,e,e,1,i,i,insect4.jpg,,,,,0,4,4,4,1,9,19,3,,,,,,i,0,0.466763210601,None,0,,27,f,18,60.0288108347,IAT_and_likerts,2015_Dec_01_1626,
,"Dit is een fase met alleen BLOEMEN en CHINESE SYMBOLEN.
Opgepast, de responsen werden omgewisseld!

Probeer steeds zo snel mogelijk te antwoorden zonder te veel fouten te maken.

Druk op E of I om verder te gaan.",, ,Ablock5_insects.xlsx,4, , ,Insect,3,Chinese symbolen,"[1, 1, 1]", ,e,e,1,i,i,insect3.jpg,,,,,0,4,4,4,2,0,20,2,,,,,,i,0,0.466804754145,None,0,,27,f,18,60.0288108347,IAT_and_likerts,2015_Dec_01_1626,
,"Dit is een fase met alleen BLOEMEN en CHINESE SYMBOLEN.
Opgepast, de responsen werden omgewisseld!

Probeer steeds zo snel mogelijk te antwoorden zonder te veel fouten te maken.

Druk op E of I om verder te gaan.",, ,Ablock5_insects.xlsx,4, , ,Insect,3,Chinese symbolen,"[1, 1, 1]", ,i,i,2,e,e,pic3.jpg,,,,,0,4,4,4,2,1,21,7,,,,,,e,0,0.433291333626,None,0,,27,f,18,60.0288108347,IAT_and_likerts,2015_Dec_01_1626,
,"Dit is een fase met alleen BLOEMEN en CHINESE SYMBOLEN.
Opgepast, de responsen werden omgewisseld!

Probeer steeds zo snel mogelijk te antwoorden zonder te veel fouten te maken.

Druk op E of I om verder te gaan.",, ,Ablock5_insects.xlsx,4, , ,Insect,3,Chinese symbolen,"[1, 1, 1]", ,i,i,2,e,e,pic4.jpg,,,,,0,4,4,4,2,2,22,8,,,,,,e,0,0.499807922208,None,0,,27,f,18,60.0288108347,IAT_and_likerts,2015_Dec_01_1626,
,"Dit is een fase met alleen BLOEMEN en CHINESE SYMBOLEN.
Opgepast, de responsen werden omgewisseld!

Probeer steeds zo snel mogelijk te antwoorden zonder te veel fouten te maken.

Druk op E of I om verder te gaan.",, ,Ablock5_insects.xlsx,4, , ,Insect,3,Chinese symbolen,"[1, 1, 1]", ,e,e,1,i,i,insect2.jpg,,,,,0,4,4,4,2,3,23,1,,,,,,i,0,0.583243973986,None,0,,27,f,18,60.0288108347,IAT_and_likerts,2015_Dec_01_1626,
,"Dit is een fase met alleen BLOEMEN en CHINESE SYMBOLEN.
Opgepast, de responsen werden omgewisseld!

Probeer steeds zo snel mogelijk te antwoorden zonder te veel fouten te maken.

Druk op E of I om verder te gaan.",, ,Ablock5_insects.xlsx,4, , ,Insect,3,Chinese symbolen,"[1, 1, 1]", ,i,i,2,e,e,pic5.jpg,,,,,0,4,4,4,2,4,24,9,,,,,,e,0,0.43330257482,None,0,,27,f,18,60.0288108347,IAT_and_likerts,2015_Dec_01_1626,
,"Dit is een fase met alleen BLOEMEN en CHINESE SYMBOLEN.
Opgepast, de responsen werden omgewisseld!

Probeer steeds zo snel mogelijk te antwoorden zonder te veel fouten te maken.

Druk op E of I om verder te gaan.",, ,Ablock5_insects.xlsx,4, , ,Insect,3,Chinese symbolen,"[1, 1, 1]", ,i,i,2,e,e,pic1.jpg,,,,,0,4,4,4,2,5,25,5,,,,,,e,0,0.433291822374,None,0,,27,f,18,60.0288108347,IAT_and_likerts,2015_Dec_01_1626,
,"Dit is een fase met alleen BLOEMEN en CHINESE SYMBOLEN.
Opgepast, de responsen werden omgewisseld!

Probeer steeds zo snel mogelijk te antwoorden zonder te veel fouten te maken.

Druk op E of I om verder te gaan.",, ,Ablock5_insects.xlsx,4, , ,Insect,3,Chinese symbolen,"[1, 1, 1]", ,e,e,1,i,i,insect5.jpg,,,,,0,4,4,4,2,6,26,4,,,,,,i,0,0.466645422439,None,0,,27,f,18,60.0288108347,IAT_and_likerts,2015_Dec_01_1626,
,"Dit is een fase met alleen BLOEMEN en CHINESE SYMBOLEN.
Opgepast, de responsen werden omgewisseld!

Probeer steeds zo snel mogelijk te antwoorden zonder te veel fouten te maken.

Druk op E of I om verder te gaan.",, ,Ablock5_insects.xlsx,4, , ,Insect,3,Chinese symbolen,"[1, 1, 1]", ,i,i,2,e,e,pic2.jpg,,,,,0,4,4,4,2,7,27,6,,,,,,e,0,0.483060009405,None,0,,27,f,18,60.0288108347,IAT_and_likerts,2015_Dec_01_1626,
,"Dit is een fase met alleen BLOEMEN en CHINESE SYMBOLEN.
Opgepast, de responsen werden omgewisseld!

Probeer steeds zo snel mogelijk te antwoorden zonder te veel fouten te maken.

Druk op E of I om verder te gaan.",, ,Ablock5_insects.xlsx,4, , ,Insect,3,Chinese symbolen,"[1, 1, 1]", ,e,e,1,i,i,insect1.jpg,,,,,0,4,4,4,2,8,28,0,,,,,,i,0,0.449897998384,None,0,,27,f,18,60.0288108347,IAT_and_likerts,2015_Dec_01_1626,
,"Dit is een fase met alleen BLOEMEN en CHINESE SYMBOLEN.
Opgepast, de responsen werden omgewisseld!

Probeer steeds zo snel mogelijk te antwoorden zonder te veel fouten te maken.

Druk op E of I om verder te gaan.",, ,Ablock5_insects.xlsx,4, , ,Insect,3,Chinese symbolen,"[1, 1, 1]", ,e,e,1,i,i,insect4.jpg,,,,,0,4,4,4,2,9,29,3,,,,,,i,0,0.366562139854,None,0,,27,f,18,60.0288108347,IAT_and_likerts,2015_Dec_01_1626,
,"Dit is een fase met alleen BLOEMEN en CHINESE SYMBOLEN.
Opgepast, de responsen werden omgewisseld!

Probeer steeds zo snel mogelijk te antwoorden zonder te veel fouten te maken.

Druk op E of I om verder te gaan.",, ,Ablock5_insects.xlsx,4, , ,Insect,3,Chinese symbolen,"[1, 1, 1]", ,e,e,1,i,i,insect3.jpg,,,,,0,4,4,4,3,0,30,2,,,,,,i,0,0.399960704695,None,0,,27,f,18,60.0288108347,IAT_and_likerts,2015_Dec_01_1626,
,"Dit is een fase met alleen BLOEMEN en CHINESE SYMBOLEN.
Opgepast, de responsen werden omgewisseld!

Probeer steeds zo snel mogelijk te antwoorden zonder te veel fouten te maken.

Druk op E of I om verder te gaan.",, ,Ablock5_insects.xlsx,4, , ,Insect,3,Chinese symbolen,"[1, 1, 1]", ,i,i,2,e,e,pic3.jpg,,,,,0,4,4,4,3,1,31,7,,,,,,e,0,0.449920480773,None,0,,27,f,18,60.0288108347,IAT_and_likerts,2015_Dec_01_1626,
,"Dit is een fase met alleen BLOEMEN en CHINESE SYMBOLEN.
Opgepast, de responsen werden omgewisseld!

Probeer steeds zo snel mogelijk te antwoorden zonder te veel fouten te maken.

Druk op E of I om verder te gaan.",, ,Ablock5_insects.xlsx,4, , ,Insect,3,Chinese symbolen,"[1, 1, 1]", ,e,e,1,i,i,insect5.jpg,,,,,0,4,4,4,3,2,32,4,,,,,,i,0,0.583112012146,None,0,,27,f,18,60.0288108347,IAT_and_likerts,2015_Dec_01_1626,
,"Dit is een fase met alleen BLOEMEN en CHINESE SYMBOLEN.
Opgepast, de responsen werden omgewisseld!

Probeer steeds zo snel mogelijk te antwoorden zonder te veel fouten te maken.

Druk op E of I om verder te gaan.",, ,Ablock5_insects.xlsx,4, , ,Insect,3,Chinese symbolen,"[1, 1, 1]", ,i,i,2,e,e,pic2.jpg,,,,,0,4,4,4,3,3,33,6,,,,,,e,0,0.949717161784,None,0,,27,f,18,60.0288108347,IAT_and_likerts,2015_Dec_01_1626,
,"Dit is een fase met alleen BLOEMEN en CHINESE SYMBOLEN.
Opgepast, de responsen werden omgewisseld!

Probeer steeds zo snel mogelijk te antwoorden zonder te veel fouten te maken.

Druk op E of I om verder te gaan.",, ,Ablock5_insects.xlsx,4, , ,Insect,3,Chinese symbolen,"[1, 1, 1]", ,i,i,2,e,e,pic1.jpg,,,,,0,4,4,4,3,4,34,5,,,,,,e,0,0.433382240673,None,0,,27,f,18,60.0288108347,IAT_and_likerts,2015_Dec_01_1626,
,"Dit is een fase met alleen BLOEMEN en CHINESE SYMBOLEN.
Opgepast, de responsen werden omgewisseld!

Probeer steeds zo snel mogelijk te antwoorden zonder te veel fouten te maken.

Druk op E of I om verder te gaan.",, ,Ablock5_insects.xlsx,4, , ,Insect,3,Chinese symbolen,"[1, 1, 1]", ,e,e,1,i,i,insect1.jpg,,,,,0,4,4,4,3,5,35,0,,,,,,i,0,0.483272614594,None,0,,27,f,18,60.0288108347,IAT_and_likerts,2015_Dec_01_1626,
,"Dit is een fase met alleen BLOEMEN en CHINESE SYMBOLEN.
Opgepast, de responsen werden omgewisseld!

Probeer steeds zo snel mogelijk te antwoorden zonder te veel fouten te maken.

Druk op E of I om verder te gaan.",, ,Ablock5_insects.xlsx,4, , ,Insect,3,Chinese symbolen,"[1, 1, 1]", ,e,e,1,i,i,insect4.jpg,,,,,0,4,4,4,3,6,36,3,,,,,,i,0,0.883164405883,e,0,0.449874049753,27,f,18,60.0288108347,IAT_and_likerts,2015_Dec_01_1626,
,"Dit is een fase met alleen BLOEMEN en CHINESE SYMBOLEN.
Opgepast, de responsen werden omgewisseld!

Probeer steeds zo snel mogelijk te antwoorden zonder te veel fouten te maken.

Druk op E of I om verder te gaan.",, ,Ablock5_insects.xlsx,4, , ,Insect,3,Chinese symbolen,"[1, 1, 1]", ,e,e,1,i,i,insect2.jpg,,,,,0,4,4,4,3,7,37,1,,,,,,i,0,0.450060751322,None,0,,27,f,18,60.0288108347,IAT_and_likerts,2015_Dec_01_1626,
,"Dit is een fase met alleen BLOEMEN en CHINESE SYMBOLEN.
Opgepast, de responsen werden omgewisseld!

Probeer steeds zo snel mogelijk te antwoorden zonder te veel fouten te maken.

Druk op E of I om verder te gaan.",, ,Ablock5_insects.xlsx,4, , ,Insect,3,Chinese symbolen,"[1, 1, 1]", ,i,i,2,e,e,pic4.jpg,,,,,0,4,4,4,3,8,38,8,,,,,,e,0,0.633281949673,None,0,,27,f,18,60.0288108347,IAT_and_likerts,2015_Dec_01_1626,
,"Dit is een fase met alleen BLOEMEN en CHINESE SYMBOLEN.
Opgepast, de responsen werden omgewisseld!

Probeer steeds zo snel mogelijk te antwoorden zonder te veel fouten te maken.

Druk op E of I om verder te gaan.",, ,Ablock5_insects.xlsx,4, , ,Insect,3,Chinese symbolen,"[1, 1, 1]", ,i,i,2,e,e,pic5.jpg,,,,,0,4,4,4,3,9,39,9,,,,,,e,0,0.516627192153,None,0,,27,f,18,60.0288108347,IAT_and_likerts,2015_Dec_01_1626,
,"Dit is een fase met alle stimuli. 

Probeer steeds zo snel mogelijk te antwoorden zonder te veel fouten te maken.

Druk op E of I om verder te gaan.",,or,Ablock6and7_insects.xlsx,1,Negatief,Positief,Insect,3,Chinese symbolen,"[1, 1, 1]", ,i,i,2,e,e,pic2.jpg,,,,,0,5,5,5,0,0,0,6,,,,,,e,0,0.78239834295,None,0,,27,f,18,60.0288108347,IAT_and_likerts,2015_Dec_01_1626,
,"Dit is een fase met alle stimuli. 

Probeer steeds zo snel mogelijk te antwoorden zonder te veel fouten te maken.

Druk op E of I om verder te gaan.",,or,Ablock6and7_insects.xlsx,1,Negatief,Positief,Insect,3,Chinese symbolen,"[-1, 1, -1]",goed,i,i,3,e,e,blank.png,,,,,0,5,5,5,0,1,1,14,,,,,,e,0,0.899904498727,None,0,,27,f,18,60.0288108347,IAT_and_likerts,2015_Dec_01_1626,
,"Dit is een fase met alle stimuli. 

Probeer steeds zo snel mogelijk te antwoorden zonder te veel fouten te maken.

Druk op E of I om verder te gaan.",,or,Ablock6and7_insects.xlsx,1,Negatief,Positief,Insect,3,Chinese symbolen,"[-1, 1, -1]",geluk,i,i,3,e,e,blank.png,,,,,0,5,5,5,0,2,2,10,,,,,,e,0,0.883087672515,None,0,,27,f,18,60.0288108347,IAT_and_likerts,2015_Dec_01_1626,
,"Dit is een fase met alle stimuli. 

Probeer steeds zo snel mogelijk te antwoorden zonder te veel fouten te maken.

Druk op E of I om verder te gaan.",,or,Ablock6and7_insects.xlsx,1,Negatief,Positief,Insect,3,Chinese symbolen,"[-1, 1, -1]",walging,e,e,4,i,i,blank.png,,,,,0,5,5,5,0,3,3,15,,,,,,i,0,0.599855037472,None,0,,27,f,18,60.0288108347,IAT_and_likerts,2015_Dec_01_1626,
,"Dit is een fase met alle stimuli. 

Probeer steeds zo snel mogelijk te antwoorden zonder te veel fouten te maken.

Druk op E of I om verder te gaan.",,or,Ablock6and7_insects.xlsx,1,Negatief,Positief,Insect,3,Chinese symbolen,"[1, 1, 1]", ,i,i,2,e,e,pic5.jpg,,,,,0,5,5,5,0,4,4,9,,,,,,e,0,0.866462435351,None,0,,27,f,18,60.0288108347,IAT_and_likerts,2015_Dec_01_1626,
,"Dit is een fase met alle stimuli. 

Probeer steeds zo snel mogelijk te antwoorden zonder te veel fouten te maken.

Druk op E of I om verder te gaan.",,or,Ablock6and7_insects.xlsx,1,Negatief,Positief,Insect,3,Chinese symbolen,"[1, 1, 1]", ,i,i,2,e,e,pic3.jpg,,,,,0,5,5,5,0,5,5,7,,,,,,e,0,0.533357021299,None,0,,27,f,18,60.0288108347,IAT_and_likerts,2015_Dec_01_1626,
,"Dit is een fase met alle stimuli. 

Probeer steeds zo snel mogelijk te antwoorden zonder te veel fouten te maken.

Druk op E of I om verder te gaan.",,or,Ablock6and7_insects.xlsx,1,Negatief,Positief,Insect,3,Chinese symbolen,"[-1, 1, -1]",vijandig,e,e,4,i,i,blank.png,,,,,0,5,5,5,0,6,6,18,,,,,,i,0,0.932801119819,None,0,,27,f,18,60.0288108347,IAT_and_likerts,2015_Dec_01_1626,
,"Dit is een fase met alle stimuli. 

Probeer steeds zo snel mogelijk te antwoorden zonder te veel fouten te maken.

Druk op E of I om verder te gaan.",,or,Ablock6and7_insects.xlsx,1,Negatief,Positief,Insect,3,Chinese symbolen,"[-1, 1, -1]",gemeen,e,e,4,i,i,blank.png,,,,,0,5,5,5,0,7,7,17,,,,,,i,0,1.11627939939,None,0,,27,f,18,60.0288108347,IAT_and_likerts,2015_Dec_01_1626,
,"Dit is een fase met alle stimuli. 

Probeer steeds zo snel mogelijk te antwoorden zonder te veel fouten te maken.

Druk op E of I om verder te gaan.",,or,Ablock6and7_insects.xlsx,1,Negatief,Positief,Insect,3,Chinese symbolen,"[1, 1, 1]", ,e,e,1,i,i,insect4.jpg,,,,,0,5,5,5,0,8,8,3,,,,,,i,0,0.899346837756,None,0,,27,f,18,60.0288108347,IAT_and_likerts,2015_Dec_01_1626,
,"Dit is een fase met alle stimuli. 

Probeer steeds zo snel mogelijk te antwoorden zonder te veel fouten te maken.

Druk op E of I om verder te gaan.",,or,Ablock6and7_insects.xlsx,1,Negatief,Positief,Insect,3,Chinese symbolen,"[1, 1, 1]", ,e,e,1,i,i,insect1.jpg,,,,,0,5,5,5,0,9,9,0,,,,,,i,0,0.53330472531,None,0,,27,f,18,60.0288108347,IAT_and_likerts,2015_Dec_01_1626,
,"Dit is een fase met alle stimuli. 

Probeer steeds zo snel mogelijk te antwoorden zonder te veel fouten te maken.

Druk op E of I om verder te gaan.",,or,Ablock6and7_insects.xlsx,1,Negatief,Positief,Insect,3,Chinese symbolen,"[-1, 1, -1]",prettig,i,i,3,e,e,blank.png,,,,,0,5,5,5,0,10,10,13,,,,,,e,0,1.11631263422,None,0,,27,f,18,60.0288108347,IAT_and_likerts,2015_Dec_01_1626,
,"Dit is een fase met alle stimuli. 

Probeer steeds zo snel mogelijk te antwoorden zonder te veel fouten te maken.

Druk op E of I om verder te gaan.",,or,Ablock6and7_insects.xlsx,1,Negatief,Positief,Insect,3,Chinese symbolen,"[1, 1, 1]", ,e,e,1,i,i,insect2.jpg,,,,,0,5,5,5,0,11,11,1,,,,,,i,0,0.683367333872,None,0,,27,f,18,60.0288108347,IAT_and_likerts,2015_Dec_01_1626,
,"Dit is een fase met alle stimuli. 

Probeer steeds zo snel mogelijk te antwoorden zonder te veel fouten te maken.

Druk op E of I om verder te gaan.",,or,Ablock6and7_insects.xlsx,1,Negatief,Positief,Insect,3,Chinese symbolen,"[1, 1, 1]", ,e,e,1,i,i,insect5.jpg,,,,,0,5,5,5,0,12,12,4,,,,,,i,0,0.515804630004,None,0,,27,f,18,60.0288108347,IAT_and_likerts,2015_Dec_01_1626,
,"Dit is een fase met alle stimuli. 

Probeer steeds zo snel mogelijk te antwoorden zonder te veel fouten te maken.

Druk op E of I om verder te gaan.",,or,Ablock6and7_insects.xlsx,1,Negatief,Positief,Insect,3,Chinese symbolen,"[-1, 1, -1]",pijn,e,e,4,i,i,blank.png,,,,,0,5,5,5,0,13,13,16,,,,,,i,0,0.983200768702,None,0,,27,f,18,60.0288108347,IAT_and_likerts,2015_Dec_01_1626,
,"Dit is een fase met alle stimuli. 

Probeer steeds zo snel mogelijk te antwoorden zonder te veel fouten te maken.

Druk op E of I om verder te gaan.",,or,Ablock6and7_insects.xlsx,1,Negatief,Positief,Insect,3,Chinese symbolen,"[-1, 1, -1]",hatelijk,e,e,4,i,i,blank.png,,,,,0,5,5,5,0,14,14,19,,,,,,i,0,0.616618590198,None,0,,27,f,18,60.0288108347,IAT_and_likerts,2015_Dec_01_1626,
,"Dit is een fase met alle stimuli. 

Probeer steeds zo snel mogelijk te antwoorden zonder te veel fouten te maken.

Druk op E of I om verder te gaan.",,or,Ablock6and7_insects.xlsx,1,Negatief,Positief,Insect,3,Chinese symbolen,"[1, 1, 1]", ,i,i,2,e,e,pic1.jpg,,,,,0,5,5,5,0,15,15,5,,,,,,e,0,1.63266759398,None,0,,27,f,18,60.0288108347,IAT_and_likerts,2015_Dec_01_1626,
,"Dit is een fase met alle stimuli. 

Probeer steeds zo snel mogelijk te antwoorden zonder te veel fouten te maken.

Druk op E of I om verder te gaan.",,or,Ablock6and7_insects.xlsx,1,Negatief,Positief,Insect,3,Chinese symbolen,"[1, 1, 1]", ,e,e,1,i,i,insect3.jpg,,,,,0,5,5,5,0,16,16,2,,,,,,i,0,0.49975904745,None,0,,27,f,18,60.0288108347,IAT_and_likerts,2015_Dec_01_1626,
,"Dit is een fase met alle stimuli. 

Probeer steeds zo snel mogelijk te antwoorden zonder te veel fouten te maken.

Druk op E of I om verder te gaan.",,or,Ablock6and7_insects.xlsx,1,Negatief,Positief,Insect,3,Chinese symbolen,"[1, 1, 1]", ,i,i,2,e,e,pic4.jpg,,,,,0,5,5,5,0,17,17,8,,,,,,e,0,0.44989457715,None,0,,27,f,18,60.0288108347,IAT_and_likerts,2015_Dec_01_1626,
,"Dit is een fase met alle stimuli. 

Probeer steeds zo snel mogelijk te antwoorden zonder te veel fouten te maken.

Druk op E of I om verder te gaan.",,or,Ablock6and7_insects.xlsx,1,Negatief,Positief,Insect,3,Chinese symbolen,"[-1, 1, -1]",vriendelijk,i,i,3,e,e,blank.png,,,,,0,5,5,5,0,18,18,12,,,,,,e,0,0.966289614211,None,0,,27,f,18,60.0288108347,IAT_and_likerts,2015_Dec_01_1626,
,"Dit is een fase met alle stimuli. 

Probeer steeds zo snel mogelijk te antwoorden zonder te veel fouten te maken.

Druk op E of I om verder te gaan.",,or,Ablock6and7_insects.xlsx,1,Negatief,Positief,Insect,3,Chinese symbolen,"[-1, 1, -1]",blij,i,i,3,e,e,blank.png,,,,,0,5,5,5,0,19,19,11,,,,,,e,0,0.599938124558,None,0,,27,f,18,60.0288108347,IAT_and_likerts,2015_Dec_01_1626,
,"Dit is een fase met alle stimuli. Het is hetzelfde als de vorige fase.

Probeer steeds zo snel mogelijk te antwoorden zonder te veel fouten te maken.

Druk op E of I om verder te gaan.",,or,Ablock6and7_insects.xlsx,2,Negatief,Positief,Insect,3,Chinese symbolen,"[-1, 1, -1]",geluk,i,i,3,e,e,blank.png,,,,,0,6,6,6,0,0,0,10,,,,,,e,0,1.1163976763,None,0,,27,f,18,60.0288108347,IAT_and_likerts,2015_Dec_01_1626,
,"Dit is een fase met alle stimuli. Het is hetzelfde als de vorige fase.

Probeer steeds zo snel mogelijk te antwoorden zonder te veel fouten te maken.

Druk op E of I om verder te gaan.",,or,Ablock6and7_insects.xlsx,2,Negatief,Positief,Insect,3,Chinese symbolen,"[-1, 1, -1]",pijn,e,e,4,i,i,blank.png,,,,,0,6,6,6,0,1,1,16,,,,,,i,0,0.683227552068,None,0,,27,f,18,60.0288108347,IAT_and_likerts,2015_Dec_01_1626,
,"Dit is een fase met alle stimuli. Het is hetzelfde als de vorige fase.

Probeer steeds zo snel mogelijk te antwoorden zonder te veel fouten te maken.

Druk op E of I om verder te gaan.",,or,Ablock6and7_insects.xlsx,2,Negatief,Positief,Insect,3,Chinese symbolen,"[1, 1, 1]", ,i,i,2,e,e,pic5.jpg,,,,,0,6,6,6,0,2,2,9,,,,,,e,0,0.849603088103,None,0,,27,f,18,60.0288108347,IAT_and_likerts,2015_Dec_01_1626,
,"Dit is een fase met alle stimuli. Het is hetzelfde als de vorige fase.

Probeer steeds zo snel mogelijk te antwoorden zonder te veel fouten te maken.

Druk op E of I om verder te gaan.",,or,Ablock6and7_insects.xlsx,2,Negatief,Positief,Insect,3,Chinese symbolen,"[-1, 1, -1]",goed,i,i,3,e,e,blank.png,,,,,0,6,6,6,0,3,3,14,,,,,,e,0,1.44964140591,None,0,,27,f,18,60.0288108347,IAT_and_likerts,2015_Dec_01_1626,
,"Dit is een fase met alle stimuli. Het is hetzelfde als de vorige fase.

Probeer steeds zo snel mogelijk te antwoorden zonder te veel fouten te maken.

Druk op E of I om verder te gaan.",,or,Ablock6and7_insects.xlsx,2,Negatief,Positief,Insect,3,Chinese symbolen,"[1, 1, 1]", ,i,i,2,e,e,pic3.jpg,,,,,0,6,6,6,0,4,4,7,,,,,,e,0,0.699796094517,None,0,,27,f,18,60.0288108347,IAT_and_likerts,2015_Dec_01_1626,
,"Dit is een fase met alle stimuli. Het is hetzelfde als de vorige fase.

Probeer steeds zo snel mogelijk te antwoorden zonder te veel fouten te maken.

Druk op E of I om verder te gaan.",,or,Ablock6and7_insects.xlsx,2,Negatief,Positief,Insect,3,Chinese symbolen,"[1, 1, 1]", ,e,e,1,i,i,insect5.jpg,,,,,0,6,6,6,0,5,5,4,,,,,,i,0,1.98266510137,None,0,,27,f,18,60.0288108347,IAT_and_likerts,2015_Dec_01_1626,
,"Dit is een fase met alle stimuli. Het is hetzelfde als de vorige fase.

Probeer steeds zo snel mogelijk te antwoorden zonder te veel fouten te maken.

Druk op E of I om verder te gaan.",,or,Ablock6and7_insects.xlsx,2,Negatief,Positief,Insect,3,Chinese symbolen,"[1, 1, 1]", ,e,e,1,i,i,insect2.jpg,,,,,0,6,6,6,0,6,6,1,,,,,,i,0,0.466731442009,None,0,,27,f,18,60.0288108347,IAT_and_likerts,2015_Dec_01_1626,
,"Dit is een fase met alle stimuli. Het is hetzelfde als de vorige fase.

Probeer steeds zo snel mogelijk te antwoorden zonder te veel fouten te maken.

Druk op E of I om verder te gaan.",,or,Ablock6and7_insects.xlsx,2,Negatief,Positief,Insect,3,Chinese symbolen,"[1, 1, 1]", ,i,i,2,e,e,pic1.jpg,,,,,0,6,6,6,0,7,7,5,,,,,,e,0,0.499917401661,None,0,,27,f,18,60.0288108347,IAT_and_likerts,2015_Dec_01_1626,
,"Dit is een fase met alle stimuli. Het is hetzelfde als de vorige fase.

Probeer steeds zo snel mogelijk te antwoorden zonder te veel fouten te maken.

Druk op E of I om verder te gaan.",,or,Ablock6and7_insects.xlsx,2,Negatief,Positief,Insect,3,Chinese symbolen,"[-1, 1, -1]",gemeen,e,e,4,i,i,blank.png,,,,,0,6,6,6,0,8,8,17,,,,,,i,0,0.916412436476,None,0,,27,f,18,60.0288108347,IAT_and_likerts,2015_Dec_01_1626,
,"Dit is een fase met alle stimuli. Het is hetzelfde als de vorige fase.

Probeer steeds zo snel mogelijk te antwoorden zonder te veel fouten te maken.

Druk op E of I om verder te gaan.",,or,Ablock6and7_insects.xlsx,2,Negatief,Positief,Insect,3,Chinese symbolen,"[-1, 1, -1]",hatelijk,e,e,4,i,i,blank.png,,,,,0,6,6,6,0,9,9,19,,,,,,i,0,0.650038659933,None,0,,27,f,18,60.0288108347,IAT_and_likerts,2015_Dec_01_1626,
,"Dit is een fase met alle stimuli. Het is hetzelfde als de vorige fase.

Probeer steeds zo snel mogelijk te antwoorden zonder te veel fouten te maken.

Druk op E of I om verder te gaan.",,or,Ablock6and7_insects.xlsx,2,Negatief,Positief,Insect,3,Chinese symbolen,"[-1, 1, -1]",walging,e,e,4,i,i,blank.png,,,,,0,6,6,6,0,10,10,15,,,,,,i,0,0.533171785972,None,0,,27,f,18,60.0288108347,IAT_and_likerts,2015_Dec_01_1626,
,"Dit is een fase met alle stimuli. Het is hetzelfde als de vorige fase.

Probeer steeds zo snel mogelijk te antwoorden zonder te veel fouten te maken.

Druk op E of I om verder te gaan.",,or,Ablock6and7_insects.xlsx,2,Negatief,Positief,Insect,3,Chinese symbolen,"[1, 1, 1]", ,e,e,1,i,i,insect1.jpg,,,,,0,6,6,6,0,11,11,0,,,,,,i,0,0.733356434801,None,0,,27,f,18,60.0288108347,IAT_and_likerts,2015_Dec_01_1626,
,"Dit is een fase met alle stimuli. Het is hetzelfde als de vorige fase.

Probeer steeds zo snel mogelijk te antwoorden zonder te veel fouten te maken.

Druk op E of I om verder te gaan.",,or,Ablock6and7_insects.xlsx,2,Negatief,Positief,Insect,3,Chinese symbolen,"[-1, 1, -1]",blij,i,i,3,e,e,blank.png,,,,,0,6,6,6,0,12,12,11,,,,,,e,0,0.533395143608,None,0,,27,f,18,60.0288108347,IAT_and_likerts,2015_Dec_01_1626,
,"Dit is een fase met alle stimuli. Het is hetzelfde als de vorige fase.

Probeer steeds zo snel mogelijk te antwoorden zonder te veel fouten te maken.

Druk op E of I om verder te gaan.",,or,Ablock6and7_insects.xlsx,2,Negatief,Positief,Insect,3,Chinese symbolen,"[1, 1, 1]", ,i,i,2,e,e,pic4.jpg,,,,,0,6,6,6,0,13,13,8,,,,,,e,0,0.583170661852,None,0,,27,f,18,60.0288108347,IAT_and_likerts,2015_Dec_01_1626,
,"Dit is een fase met alle stimuli. Het is hetzelfde als de vorige fase.

Probeer steeds zo snel mogelijk te antwoorden zonder te veel fouten te maken.

Druk op E of I om verder te gaan.",,or,Ablock6and7_insects.xlsx,2,Negatief,Positief,Insect,3,Chinese symbolen,"[1, 1, 1]", ,i,i,2,e,e,pic2.jpg,,,,,0,6,6,6,0,14,14,6,,,,,,e,0,0.449958114334,None,0,,27,f,18,60.0288108347,IAT_and_likerts,2015_Dec_01_1626,
,"Dit is een fase met alle stimuli. Het is hetzelfde als de vorige fase.

Probeer steeds zo snel mogelijk te antwoorden zonder te veel fouten te maken.

Druk op E of I om verder te gaan.",,or,Ablock6and7_insects.xlsx,2,Negatief,Positief,Insect,3,Chinese symbolen,"[-1, 1, -1]",vriendelijk,i,i,3,e,e,blank.png,,,,,0,6,6,6,0,15,15,12,,,,,,e,0,0.716602657027,None,0,,27,f,18,60.0288108347,IAT_and_likerts,2015_Dec_01_1626,
,"Dit is een fase met alle stimuli. Het is hetzelfde als de vorige fase.

Probeer steeds zo snel mogelijk te antwoorden zonder te veel fouten te maken.

Druk op E of I om verder te gaan.",,or,Ablock6and7_insects.xlsx,2,Negatief,Positief,Insect,3,Chinese symbolen,"[1, 1, 1]", ,e,e,1,i,i,insect3.jpg,,,,,0,6,6,6,0,16,16,2,,,,,,i,0,0.499914469176,None,0,,27,f,18,60.0288108347,IAT_and_likerts,2015_Dec_01_1626,
,"Dit is een fase met alle stimuli. Het is hetzelfde als de vorige fase.

Probeer steeds zo snel mogelijk te antwoorden zonder te veel fouten te maken.

Druk op E of I om verder te gaan.",,or,Ablock6and7_insects.xlsx,2,Negatief,Positief,Insect,3,Chinese symbolen,"[-1, 1, -1]",vijandig,e,e,4,i,i,blank.png,,,,,0,6,6,6,0,17,17,18,,,,,,i,0,0.616186537351,None,0,,27,f,18,60.0288108347,IAT_and_likerts,2015_Dec_01_1626,
,"Dit is een fase met alle stimuli. Het is hetzelfde als de vorige fase.

Probeer steeds zo snel mogelijk te antwoorden zonder te veel fouten te maken.

Druk op E of I om verder te gaan.",,or,Ablock6and7_insects.xlsx,2,Negatief,Positief,Insect,3,Chinese symbolen,"[1, 1, 1]", ,e,e,1,i,i,insect4.jpg,,,,,0,6,6,6,0,18,18,3,,,,,,i,0,0.533191335873,None,0,,27,f,18,60.0288108347,IAT_and_likerts,2015_Dec_01_1626,
,"Dit is een fase met alle stimuli. Het is hetzelfde als de vorige fase.

Probeer steeds zo snel mogelijk te antwoorden zonder te veel fouten te maken.

Druk op E of I om verder te gaan.",,or,Ablock6and7_insects.xlsx,2,Negatief,Positief,Insect,3,Chinese symbolen,"[-1, 1, -1]",prettig,i,i,3,e,e,blank.png,,,,,0,6,6,6,0,19,19,13,,,,,,e,0,0.56654689093,None,0,,27,f,18,60.0288108347,IAT_and_likerts,2015_Dec_01_1626,
,"Dit is een fase met alle stimuli. Het is hetzelfde als de vorige fase.

Probeer steeds zo snel mogelijk te antwoorden zonder te veel fouten te maken.

Druk op E of I om verder te gaan.",,or,Ablock6and7_insects.xlsx,2,Negatief,Positief,Insect,3,Chinese symbolen,"[1, 1, 1]", ,i,i,2,e,e,pic3.jpg,,,,,0,6,6,6,1,0,20,7,,,,,,e,0,0.716499531291,None,0,,27,f,18,60.0288108347,IAT_and_likerts,2015_Dec_01_1626,
,"Dit is een fase met alle stimuli. Het is hetzelfde als de vorige fase.

Probeer steeds zo snel mogelijk te antwoorden zonder te veel fouten te maken.

Druk op E of I om verder te gaan.",,or,Ablock6and7_insects.xlsx,2,Negatief,Positief,Insect,3,Chinese symbolen,"[1, 1, 1]", ,i,i,2,e,e,pic2.jpg,,,,,0,6,6,6,1,1,21,6,,,,,,e,0,0.54997101727,None,0,,27,f,18,60.0288108347,IAT_and_likerts,2015_Dec_01_1626,
,"Dit is een fase met alle stimuli. Het is hetzelfde als de vorige fase.

Probeer steeds zo snel mogelijk te antwoorden zonder te veel fouten te maken.

Druk op E of I om verder te gaan.",,or,Ablock6and7_insects.xlsx,2,Negatief,Positief,Insect,3,Chinese symbolen,"[1, 1, 1]", ,e,e,1,i,i,insect1.jpg,,,,,0,6,6,6,1,2,22,0,,,,,,i,0,0.76662108281,None,0,,27,f,18,60.0288108347,IAT_and_likerts,2015_Dec_01_1626,
,"Dit is een fase met alle stimuli. Het is hetzelfde als de vorige fase.

Probeer steeds zo snel mogelijk te antwoorden zonder te veel fouten te maken.

Druk op E of I om verder te gaan.",,or,Ablock6and7_insects.xlsx,2,Negatief,Positief,Insect,3,Chinese symbolen,"[-1, 1, -1]",gemeen,e,e,4,i,i,blank.png,,,,,0,6,6,6,1,3,23,17,,,,,,i,0,1.13269056512,None,0,,27,f,18,60.0288108347,IAT_and_likerts,2015_Dec_01_1626,
,"Dit is een fase met alle stimuli. Het is hetzelfde als de vorige fase.

Probeer steeds zo snel mogelijk te antwoorden zonder te veel fouten te maken.

Druk op E of I om verder te gaan.",,or,Ablock6and7_insects.xlsx,2,Negatief,Positief,Insect,3,Chinese symbolen,"[1, 1, 1]", ,i,i,2,e,e,pic5.jpg,,,,,0,6,6,6,1,4,24,9,,,,,,e,0,0.933042561115,None,0,,27,f,18,60.0288108347,IAT_and_likerts,2015_Dec_01_1626,
,"Dit is een fase met alle stimuli. Het is hetzelfde als de vorige fase.

Probeer steeds zo snel mogelijk te antwoorden zonder te veel fouten te maken.

Druk op E of I om verder te gaan.",,or,Ablock6and7_insects.xlsx,2,Negatief,Positief,Insect,3,Chinese symbolen,"[-1, 1, -1]",pijn,e,e,4,i,i,blank.png,,,,,0,6,6,6,1,5,25,16,,,,,,i,0,0.833141092624,None,0,,27,f,18,60.0288108347,IAT_and_likerts,2015_Dec_01_1626,
,"Dit is een fase met alle stimuli. Het is hetzelfde als de vorige fase.

Probeer steeds zo snel mogelijk te antwoorden zonder te veel fouten te maken.

Druk op E of I om verder te gaan.",,or,Ablock6and7_insects.xlsx,2,Negatief,Positief,Insect,3,Chinese symbolen,"[1, 1, 1]", ,i,i,2,e,e,pic1.jpg,,,,,0,6,6,6,1,6,26,5,,,,,,e,0,1.14947562274,None,0,,27,f,18,60.0288108347,IAT_and_likerts,2015_Dec_01_1626,
,"Dit is een fase met alle stimuli. Het is hetzelfde als de vorige fase.

Probeer steeds zo snel mogelijk te antwoorden zonder te veel fouten te maken.

Druk op E of I om verder te gaan.",,or,Ablock6and7_insects.xlsx,2,Negatief,Positief,Insect,3,Chinese symbolen,"[-1, 1, -1]",blij,i,i,3,e,e,blank.png,,,,,0,6,6,6,1,7,27,11,,,,,,e,0,0.766974447299,None,0,,27,f,18,60.0288108347,IAT_and_likerts,2015_Dec_01_1626,
,"Dit is een fase met alle stimuli. Het is hetzelfde als de vorige fase.

Probeer steeds zo snel mogelijk te antwoorden zonder te veel fouten te maken.

Druk op E of I om verder te gaan.",,or,Ablock6and7_insects.xlsx,2,Negatief,Positief,Insect,3,Chinese symbolen,"[-1, 1, -1]",vijandig,e,e,4,i,i,blank.png,,,,,0,6,6,6,1,8,28,18,,,,,,i,0,1.18307946156,None,0,,27,f,18,60.0288108347,IAT_and_likerts,2015_Dec_01_1626,
,"Dit is een fase met alle stimuli. Het is hetzelfde als de vorige fase.

Probeer steeds zo snel mogelijk te antwoorden zonder te veel fouten te maken.

Druk op E of I om verder te gaan.",,or,Ablock6and7_insects.xlsx,2,Negatief,Positief,Insect,3,Chinese symbolen,"[-1, 1, -1]",goed,i,i,3,e,e,blank.png,,,,,0,6,6,6,1,9,29,14,,,,,,e,0,1.09966295968,None,0,,27,f,18,60.0288108347,IAT_and_likerts,2015_Dec_01_1626,
,"Dit is een fase met alle stimuli. Het is hetzelfde als de vorige fase.

Probeer steeds zo snel mogelijk te antwoorden zonder te veel fouten te maken.

Druk op E of I om verder te gaan.",,or,Ablock6and7_insects.xlsx,2,Negatief,Positief,Insect,3,Chinese symbolen,"[1, 1, 1]", ,e,e,1,i,i,insect4.jpg,,,,,0,6,6,6,1,10,30,3,,,,,,i,0,0.682630302545,None,0,,27,f,18,60.0288108347,IAT_and_likerts,2015_Dec_01_1626,
,"Dit is een fase met alle stimuli. Het is hetzelfde als de vorige fase.

Probeer steeds zo snel mogelijk te antwoorden zonder te veel fouten te maken.

Druk op E of I om verder te gaan.",,or,Ablock6and7_insects.xlsx,2,Negatief,Positief,Insect,3,Chinese symbolen,"[-1, 1, -1]",geluk,i,i,3,e,e,blank.png,,,,,0,6,6,6,1,11,31,10,,,,,,e,0,1.11665378002,None,0,,27,f,18,60.0288108347,IAT_and_likerts,2015_Dec_01_1626,
,"Dit is een fase met alle stimuli. Het is hetzelfde als de vorige fase.

Probeer steeds zo snel mogelijk te antwoorden zonder te veel fouten te maken.

Druk op E of I om verder te gaan.",,or,Ablock6and7_insects.xlsx,2,Negatief,Positief,Insect,3,Chinese symbolen,"[-1, 1, -1]",prettig,i,i,3,e,e,blank.png,,,,,0,6,6,6,1,12,32,13,,,,,,e,0,0.616803336778,None,0,,27,f,18,60.0288108347,IAT_and_likerts,2015_Dec_01_1626,
,"Dit is een fase met alle stimuli. Het is hetzelfde als de vorige fase.

Probeer steeds zo snel mogelijk te antwoorden zonder te veel fouten te maken.

Druk op E of I om verder te gaan.",,or,Ablock6and7_insects.xlsx,2,Negatief,Positief,Insect,3,Chinese symbolen,"[-1, 1, -1]",walging,e,e,4,i,i,blank.png,,,,,0,6,6,6,1,13,33,15,,,,,,i,0,0.58285786341,None,0,,27,f,18,60.0288108347,IAT_and_likerts,2015_Dec_01_1626,
,"Dit is een fase met alle stimuli. Het is hetzelfde als de vorige fase.

Probeer steeds zo snel mogelijk te antwoorden zonder te veel fouten te maken.

Druk op E of I om verder te gaan.",,or,Ablock6and7_insects.xlsx,2,Negatief,Positief,Insect,3,Chinese symbolen,"[1, 1, 1]", ,e,e,1,i,i,insect2.jpg,,,,,0,6,6,6,1,14,34,1,,,,,,i,0,0.633315184507,None,0,,27,f,18,60.0288108347,IAT_and_likerts,2015_Dec_01_1626,
,"Dit is een fase met alle stimuli. Het is hetzelfde als de vorige fase.

Probeer steeds zo snel mogelijk te antwoorden zonder te veel fouten te maken.

Druk op E of I om verder te gaan.",,or,Ablock6and7_insects.xlsx,2,Negatief,Positief,Insect,3,Chinese symbolen,"[1, 1, 1]", ,e,e,1,i,i,insect5.jpg,,,,,0,6,6,6,1,15,35,4,,,,,,i,0,0.549941692416,None,0,,27,f,18,60.0288108347,IAT_and_likerts,2015_Dec_01_1626,
,"Dit is een fase met alle stimuli. Het is hetzelfde als de vorige fase.

Probeer steeds zo snel mogelijk te antwoorden zonder te veel fouten te maken.

Druk op E of I om verder te gaan.",,or,Ablock6and7_insects.xlsx,2,Negatief,Positief,Insect,3,Chinese symbolen,"[-1, 1, -1]",hatelijk,e,e,4,i,i,blank.png,,,,,0,6,6,6,1,16,36,19,,,,,,i,0,1.8160354166,None,0,,27,f,18,60.0288108347,IAT_and_likerts,2015_Dec_01_1626,
,"Dit is een fase met alle stimuli. Het is hetzelfde als de vorige fase.

Probeer steeds zo snel mogelijk te antwoorden zonder te veel fouten te maken.

Druk op E of I om verder te gaan.",,or,Ablock6and7_insects.xlsx,2,Negatief,Positief,Insect,3,Chinese symbolen,"[-1, 1, -1]",vriendelijk,i,i,3,e,e,blank.png,,,,,0,6,6,6,1,17,37,12,,,,,,e,0,0.716505396262,None,0,,27,f,18,60.0288108347,IAT_and_likerts,2015_Dec_01_1626,
,"Dit is een fase met alle stimuli. Het is hetzelfde als de vorige fase.

Probeer steeds zo snel mogelijk te antwoorden zonder te veel fouten te maken.

Druk op E of I om verder te gaan.",,or,Ablock6and7_insects.xlsx,2,Negatief,Positief,Insect,3,Chinese symbolen,"[1, 1, 1]", ,i,i,2,e,e,pic4.jpg,,,,,0,6,6,6,1,18,38,8,,,,,,e,0,0.766476902279,None,0,,27,f,18,60.0288108347,IAT_and_likerts,2015_Dec_01_1626,
,"Dit is een fase met alle stimuli. Het is hetzelfde als de vorige fase.

Probeer steeds zo snel mogelijk te antwoorden zonder te veel fouten te maken.

Druk op E of I om verder te gaan.",,or,Ablock6and7_insects.xlsx,2,Negatief,Positief,Insect,3,Chinese symbolen,"[1, 1, 1]", ,e,e,1,i,i,insect3.jpg,,,,,0,6,6,6,1,19,39,2,,,,,,i,0,0.916509208491,None,0,,27,f,18,60.0288108347,IAT_and_likerts,2015_Dec_01_1626,
2,"Hoe aangenaam vind je de volgende?
1 = helemaal niet aangenaam
2 = eerder niet aangenaam
3 = onverschillig
4 = eerder aangenaam
5 = heel aangenaam",pic1.jpg,,,,,,,,,,,,,,,,,,,,,,,,,,,,,0,0,0,0,3,,,,,,,27,f,18,60.0288108347,IAT_and_likerts,2015_Dec_01_1626,
2,"Hoe aangenaam vind je de volgende?
1 = helemaal niet aangenaam
2 = eerder niet aangenaam
3 = onverschillig
4 = eerder aangenaam
5 = heel aangenaam",pic2.jpg,,,,,,,,,,,,,,,,,,,,,,,,,,,,,0,1,1,1,3,,,,,,,27,f,18,60.0288108347,IAT_and_likerts,2015_Dec_01_1626,
2,"Hoe aangenaam vind je de volgende?
1 = helemaal niet aangenaam
2 = eerder niet aangenaam
3 = onverschillig
4 = eerder aangenaam
5 = heel aangenaam",pic3.jpg,,,,,,,,,,,,,,,,,,,,,,,,,,,,,0,2,2,2,3,,,,,,,27,f,18,60.0288108347,IAT_and_likerts,2015_Dec_01_1626,
2,"Hoe aangenaam vind je de volgende?
1 = helemaal niet aangenaam
2 = eerder niet aangenaam
3 = onverschillig
4 = eerder aangenaam
5 = heel aangenaam",pic4.jpg,,,,,,,,,,,,,,,,,,,,,,,,,,,,,0,3,3,3,3,,,,,,,27,f,18,60.0288108347,IAT_and_likerts,2015_Dec_01_1626,
2,"Hoe aangenaam vind je de volgende?
1 = helemaal niet aangenaam
2 = eerder niet aangenaam
3 = onverschillig
4 = eerder aangenaam
5 = heel aangenaam",pic5.jpg,,,,,,,,,,,,,,,,,,,,,,,,,,,,,0,4,4,4,3,,,,,,,27,f,18,60.0288108347,IAT_and_likerts,2015_Dec_01_1626,
1,"Hoe aangenaam vind je de volgende?
1 = helemaal niet aangenaam
2 = eerder niet aangenaam
3 = onverschillig
4 = eerder aangenaam
