participant,trial_n,recip_rt_sciat_block_2,accuracy,rt,age,gender,exclude,IAT_condition,attribute_condition,recip_rt_sciat_block_1
380644,1,1.1402508551881414,1,793,36,female,FALSE,Flowers,nonword attributes,1.2610340479192939
380644,2,1.2594458438287153,1,457,36,female,FALSE,Flowers,nonword attributes,2.1881838074398248
380644,3,1.1049723756906078,1,387,36,female,FALSE,Flowers,nonword attributes,2.5839793281653747
380644,4,1.7094017094017093,1,455,36,female,FALSE,Flowers,nonword attributes,2.197802197802198
380644,5,1.9011406844106464,1,413,36,female,FALSE,Flowers,nonword attributes,2.4213075060532687
380644,6,1.3458950201884252,1,525,36,female,FALSE,Flowers,nonword attributes,1.9047619047619047
380644,7,1.7889087656529516,1,522,36,female,FALSE,Flowers,nonword attributes,1.9157088122605364
380644,8,1.694915254237288,1,560,36,female,FALSE,Flowers,nonword attributes,1.7857142857142858
380644,9,1.1441647597254005,1,493,36,female,FALSE,Flowers,nonword attributes,2.028397565922921
380644,10,2.4691358024691357,1,667,36,female,FALSE,Flowers,nonword attributes,1.4992503748125936
380644,11,1.6863406408094435,1,510,36,female,FALSE,Flowers,nonword attributes,1.9607843137254901
380644,12,1.1507479861910241,1,648,36,female,FALSE,Flowers,nonword attributes,1.5432098765432098
380644,13,1.2019230769230769,1,460,36,female,FALSE,Flowers,nonword attributes,2.1739130434782608
380644,14,1.589825119236884,1,502,36,female,FALSE,Flowers,nonword attributes,1.9920318725099602
380644,15,2.5188916876574305,1,394,36,female,FALSE,Flowers,nonword attributes,2.5380710659898478
380644,16,2.8011204481792715,1,484,36,female,FALSE,Flowers,nonword attributes,2.0661157024793386
380644,17,1.6863406408094435,1,607,36,female,FALSE,Flowers,nonword attributes,1.6474464579901154
380644,18,2.178649237472767,1,393,36,female,FALSE,Flowers,nonword attributes,2.544529262086514
380644,19,1.9342359767891684,1,618,36,female,FALSE,Flowers,nonword attributes,1.6181229773462784
380644,20,1.9011406844106464,1,505,36,female,FALSE,Flowers,nonword attributes,1.9801980198019802
380644,21,2.8901734104046244,1,460,36,female,FALSE,Flowers,nonword attributes,2.1739130434782608
380644,23,1.7921146953405018,1,393,36,female,FALSE,Flowers,nonword attributes,2.544529262086514
380644,24,0.9970089730807578,1,613,36,female,FALSE,Flowers,nonword attributes,1.6313213703099512
380644,25,1.2755102040816326,1,464,36,female,FALSE,Flowers,nonword attributes,2.1551724137931036
380644,26,1.4534883720930232,,,,,,,,
380644,27,2.73972602739726,1,519,36,female,FALSE,Flowers,nonword attributes,1.9267822736030829
380644,28,2.6041666666666665,1,558,36,female,FALSE,Flowers,nonword attributes,1.7921146953405018
380644,29,1.697792869269949,1,512,36,female,FALSE,Flowers,nonword attributes,1.953125
380644,30,1.4641288433382138,1,563,36,female,FALSE,Flowers,nonword attributes,1.7761989342806395
380644,31,0.7401924500370096,1,435,36,female,FALSE,Flowers,nonword attributes,2.2988505747126435
380644,32,1.4836795252225519,1,400,36,female,FALSE,Flowers,nonword attributes,2.5
380644,33,1.9157088122605364,,,,,,,,
380644,34,2.4271844660194173,1,496,36,female,FALSE,Flowers,nonword attributes,2.0161290322580645
380644,35,2.2988505747126435,1,484,36,female,FALSE,Flowers,nonword attributes,2.0661157024793386
380644,36,1.3774104683195592,1,582,36,female,FALSE,Flowers,nonword attributes,1.7182130584192439
380644,37,1.8691588785046729,1,396,36,female,FALSE,Flowers,nonword attributes,2.525252525252525
380644,38,1.3812154696132597,1,436,36,female,FALSE,Flowers,nonword attributes,2.293577981651376
380644,39,1.6778523489932886,1,489,36,female,FALSE,Flowers,nonword attributes,2.044989775051125
380644,40,2.3255813953488373,1,359,36,female,FALSE,Flowers,nonword attributes,2.785515320334262
380644,41,1.86219739292365,1,368,36,female,FALSE,Flowers,nonword attributes,2.717391304347826
380644,42,2.487562189054726,1,688,36,female,FALSE,Flowers,nonword attributes,1.4534883720930232
380644,43,1.7667844522968197,1,563,36,female,FALSE,Flowers,nonword attributes,1.7761989342806395
380644,44,2.044989775051125,0,769,36,female,FALSE,Flowers,nonword attributes,1.3003901170351104
380644,45,2.109704641350211,1,618,36,female,FALSE,Flowers,nonword attributes,1.6181229773462784
380644,46,1.550387596899225,0,933,36,female,FALSE,Flowers,nonword attributes,1.0718113612004287
380644,47,2.2172949002217295,1,493,36,female,FALSE,Flowers,nonword attributes,2.028397565922921
380644,48,1.9607843137254901,1,454,36,female,FALSE,Flowers,nonword attributes,2.202643171806167
380644,49,2.109704641350211,1,532,36,female,FALSE,Flowers,nonword attributes,1.8796992481203008
380644,50,0.6734006734006734,1,872,36,female,FALSE,Flowers,nonword attributes,1.146788990825688
380644,51,1.9120458891013383,1,588,36,female,FALSE,Flowers,nonword attributes,1.7006802721088434
380644,52,1.2820512820512822,1,393,36,female,FALSE,Flowers,nonword attributes,2.544529262086514
380644,53,1.287001287001287,1,444,36,female,FALSE,Flowers,nonword attributes,2.2522522522522523
380644,54,1.7035775127768313,1,462,36,female,FALSE,Flowers,nonword attributes,2.1645021645021645
380644,55,1.4204545454545454,1,400,36,female,FALSE,Flowers,nonword attributes,2.5
380644,56,1.615508885298869,1,469,36,female,FALSE,Flowers,nonword attributes,2.1321961620469083
380644,57,1.8050541516245486,1,429,36,female,FALSE,Flowers,nonword attributes,2.331002331002331
380644,58,2.232142857142857,1,481,36,female,FALSE,Flowers,nonword attributes,2.079002079002079
380644,59,1.4144271570014144,1,656,36,female,FALSE,Flowers,nonword attributes,1.524390243902439
380644,60,1.8018018018018018,1,564,36,female,FALSE,Flowers,nonword attributes,1.7730496453900708
380644,61,1.6778523489932886,1,598,36,female,FALSE,Flowers,nonword attributes,1.6722408026755853
380644,62,2.0618556701030926,1,536,36,female,FALSE,Flowers,nonword attributes,1.8656716417910448
380644,63,1.8656716417910448,1,687,36,female,FALSE,Flowers,nonword attributes,1.455604075691412
380644,64,1.663893510815308,1,441,36,female,FALSE,Flowers,nonword attributes,2.2675736961451247
380644,65,2.0533880903490758,1,428,36,female,FALSE,Flowers,nonword attributes,2.336448598130841
380644,66,2.192982456140351,1,643,36,female,FALSE,Flowers,nonword attributes,1.5552099533437014
380644,67,1.6366612111292962,1,539,36,female,FALSE,Flowers,nonword attributes,1.8552875695732838
380644,68,1.890359168241966,1,533,36,female,FALSE,Flowers,nonword attributes,1.876172607879925
380644,69,1.6207455429497568,1,563,36,female,FALSE,Flowers,nonword attributes,1.7761989342806395
380644,70,1.7543859649122806,1,404,36,female,FALSE,Flowers,nonword attributes,2.4752475247524752
1882272,1,0.9950248756218906,1,697,43,male,FALSE,Insects,nonword attributes,1.4347202295552368
1882272,2,1.2330456226880395,1,692,43,male,FALSE,Insects,nonword attributes,1.4450867052023122
1882272,3,1.095290251916758,1,750,43,male,FALSE,Insects,nonword attributes,1.3333333333333333
1882272,4,1.2953367875647668,1,663,43,male,FALSE,Insects,nonword attributes,1.5082956259426847
1882272,5,1.3679890560875514,1,1107,43,male,FALSE,Insects,nonword attributes,0.9033423667570009
1882272,6,1.1299435028248588,1,733,43,male,FALSE,Insects,nonword attributes,1.364256480218281
1882272,7,1.1918951132300357,1,726,43,male,FALSE,Insects,nonword attributes,1.3774104683195592
1882272,8,1.3089005235602094,1,735,43,male,FALSE,Insects,nonword attributes,1.3605442176870748
1882272,9,1.3513513513513513,1,632,43,male,FALSE,Insects,nonword attributes,1.5822784810126582
1882272,10,1.3966480446927374,1,693,43,male,FALSE,Insects,nonword attributes,1.443001443001443
1882272,11,1.3192612137203166,1,912,43,male,FALSE,Insects,nonword attributes,1.0964912280701755
1882272,12,0.9208103130755064,1,706,43,male,FALSE,Insects,nonword attributes,1.4164305949008498
1882272,13,1.287001287001287,1,636,43,male,FALSE,Insects,nonword attributes,1.5723270440251573
1882272,14,0.9615384615384616,1,713,43,male,FALSE,Insects,nonword attributes,1.402524544179523
1882272,15,1.2300123001230012,1,675,43,male,FALSE,Insects,nonword attributes,1.4814814814814814
1882272,16,1.297016861219196,1,654,43,male,FALSE,Insects,nonword attributes,1.529051987767584
1882272,17,1.2594458438287153,1,714,43,male,FALSE,Insects,nonword attributes,1.4005602240896358
1882272,18,1.3003901170351104,1,725,43,male,FALSE,Insects,nonword attributes,1.3793103448275863
1882272,19,1.402524544179523,1,703,43,male,FALSE,Insects,nonword attributes,1.422475106685633
1882272,20,1.2453300124533002,1,696,43,male,FALSE,Insects,nonword attributes,1.4367816091954022
1882272,21,1.2121212121212122,1,627,43,male,FALSE,Insects,nonword attributes,1.594896331738437
1882272,22,0.7923930269413629,1,656,43,male,FALSE,Insects,nonword attributes,1.524390243902439
1882272,23,1.1534025374855825,1,749,43,male,FALSE,Insects,nonword attributes,1.335113484646195
1882272,24,1.1494252873563218,1,757,43,male,FALSE,Insects,nonword attributes,1.321003963011889
1882272,25,1.2360939431396787,1,1085,43,male,FALSE,Insects,nonword attributes,0.9216589861751152
1882272,26,1.1574074074074074,1,808,43,male,FALSE,Insects,nonword attributes,1.2376237623762376
1882272,27,0.9587727708533078,1,878,43,male,FALSE,Insects,nonword attributes,1.1389521640091116
1882272,28,1.1160714285714286,1,721,43,male,FALSE,Insects,nonword attributes,1.3869625520110958
1882272,29,1.1750881316098707,1,715,43,male,FALSE,Insects,nonword attributes,1.3986013986013985
1882272,30,1.1074197120708749,1,1221,43,male,FALSE,Insects,nonword attributes,0.819000819000819
1882272,31,0.983284169124877,1,683,43,male,FALSE,Insects,nonword attributes,1.4641288433382138
1882272,32,0.6349206349206349,1,725,43,male,FALSE,Insects,nonword attributes,1.3793103448275863
1882272,33,1.3054830287206267,1,1023,43,male,FALSE,Insects,nonword attributes,0.9775171065493646
1882272,34,1.1507479861910241,1,716,43,male,FALSE,Insects,nonword attributes,1.3966480446927374
1882272,35,1.0493179433368311,1,661,43,male,FALSE,Insects,nonword attributes,1.51285930408472
1882272,36,1.3717421124828533,1,674,43,male,FALSE,Insects,nonword attributes,1.4836795252225519
1882272,37,1.2453300124533002,1,637,43,male,FALSE,Insects,nonword attributes,1.5698587127158556
1882272,38,1.3736263736263736,1,682,43,male,FALSE,Insects,nonword attributes,1.466275659824047
1882272,39,1.2468827930174564,1,1140,43,male,FALSE,Insects,nonword attributes,0.8771929824561403
1882272,40,1.2626262626262625,1,701,43,male,FALSE,Insects,nonword attributes,1.4265335235378032
1882272,41,1.3315579227696406,1,807,43,male,FALSE,Insects,nonword attributes,1.2391573729863692
1882272,42,1.4727540500736378,1,685,43,male,FALSE,Insects,nonword attributes,1.4598540145985401
1882272,43,1.3850415512465375,1,888,43,male,FALSE,Insects,nonword attributes,1.1261261261261262
1882272,44,1.3368983957219251,1,587,43,male,FALSE,Insects,nonword attributes,1.7035775127768313
1882272,45,1.0729613733905579,1,649,43,male,FALSE,Insects,nonword attributes,1.5408320493066257
1882272,46,1.1507479861910241,1,646,43,male,FALSE,Insects,nonword attributes,1.5479876160990713
1882272,47,1.287001287001287,1,675,43,male,FALSE,Insects,nonword attributes,1.4814814814814814
1882272,48,0.8012820512820513,1,686,43,male,FALSE,Insects,nonword attributes,1.4577259475218658
1882272,49,1.218026796589525,1,681,43,male,FALSE,Insects,nonword attributes,1.4684287812041117
1882272,50,1.1641443538998837,1,644,43,male,FALSE,Insects,nonword attributes,1.5527950310559007
1882272,51,1.2048192771084338,1,785,43,male,FALSE,Insects,nonword attributes,1.2738853503184713
1882272,52,1.3227513227513228,1,728,43,male,FALSE,Insects,nonword attributes,1.3736263736263736
1882272,53,1.0460251046025104,1,736,43,male,FALSE,Insects,nonword attributes,1.358695652173913
1882272,54,1.4619883040935673,1,762,43,male,FALSE,Insects,nonword attributes,1.3123359580052494
1882272,55,1.2642225031605563,1,738,43,male,FALSE,Insects,nonword attributes,1.3550135501355014
1882272,56,1.364256480218281,1,666,43,male,FALSE,Insects,nonword attributes,1.5015015015015014
1882272,57,1.4749262536873156,1,918,43,male,FALSE,Insects,nonword attributes,1.0893246187363834
1882272,58,1.3262599469496021,1,743,43,male,FALSE,Insects,nonword attributes,1.3458950201884252
1882272,59,1.3404825737265416,1,896,43,male,FALSE,Insects,nonword attributes,1.1160714285714286
1882272,60,1.1976047904191616,1,659,43,male,FALSE,Insects,nonword attributes,1.5174506828528074
1882272,61,1.2903225806451613,1,719,43,male,FALSE,Insects,nonword attributes,1.3908205841446453
1882272,62,1.3315579227696406,1,1752,43,male,FALSE,Insects,nonword attributes,0.5707762557077626
1882272,63,1.2642225031605563,1,664,43,male,FALSE,Insects,nonword attributes,1.5060240963855422
1882272,64,1.2300123001230012,1,693,43,male,FALSE,Insects,nonword attributes,1.443001443001443
1882272,65,1.5151515151515151,1,815,43,male,FALSE,Insects,nonword attributes,1.2269938650306749
1882272,66,1.4204545454545454,1,757,43,male,FALSE,Insects,nonword attributes,1.321003963011889
1882272,67,1.3123359580052494,1,621,43,male,FALSE,Insects,nonword attributes,1.6103059581320451
1882272,68,1.4492753623188406,1,876,43,male,FALSE,Insects,nonword attributes,1.1415525114155252
1882272,69,1.2547051442910917,1,686,43,male,FALSE,Insects,nonword attributes,1.4577259475218658
1882272,70,1.2706480304955527,1,585,43,male,FALSE,Insects,nonword attributes,1.7094017094017093
4303807,1,1.0582010582010581,1,960,45,male,FALSE,Insects,nonword attributes,1.0416666666666667
4303807,2,1.6051364365971108,1,670,45,male,FALSE,Insects,nonword attributes,1.492537313432836
4303807,3,1.5527950310559007,1,864,45,male,FALSE,Insects,nonword attributes,1.1574074074074074
4303807,4,1.8975332068311195,1,699,45,male,FALSE,Insects,nonword attributes,1.4306151645207439
4303807,5,0.5186721991701245,1,708,45,male,FALSE,Insects,nonword attributes,1.4124293785310735
4303807,6,1.0626992561105206,1,740,45,male,FALSE,Insects,nonword attributes,1.3513513513513513
4303807,7,1.2195121951219512,1,693,45,male,FALSE,Insects,nonword attributes,1.443001443001443
4303807,8,1.2019230769230769,1,774,45,male,FALSE,Insects,nonword attributes,1.2919896640826873
4303807,9,1.443001443001443,1,747,45,male,FALSE,Insects,nonword attributes,1.3386880856760375
4303807,10,1.0615711252653928,1,811,45,male,FALSE,Insects,nonword attributes,1.2330456226880395
4303807,11,1.4771048744460857,1,927,45,male,FALSE,Insects,nonword attributes,1.0787486515641855
4303807,12,1.2642225031605563,1,671,45,male,FALSE,Insects,nonword attributes,1.4903129657228018
4303807,13,1.2690355329949239,1,641,45,male,FALSE,Insects,nonword attributes,1.5600624024960998
4303807,14,1.3404825737265416,1,813,45,male,FALSE,Insects,nonword attributes,1.2300123001230012
4303807,15,1.5408320493066257,1,970,45,male,FALSE,Insects,nonword attributes,1.0309278350515463
4303807,16,1.5723270440251573,1,703,45,male,FALSE,Insects,nonword attributes,1.422475106685633
4303807,17,1.6233766233766234,1,735,45,male,FALSE,Insects,nonword attributes,1.3605442176870748
4303807,18,1.152073732718894,1,687,45,male,FALSE,Insects,nonword attributes,1.455604075691412
4303807,19,1.2406947890818858,1,864,45,male,FALSE,Insects,nonword attributes,1.1574074074074074
4303807,20,1.3245033112582782,1,1003,45,male,FALSE,Insects,nonword attributes,0.9970089730807578
4303807,21,1.1235955056179776,1,808,45,male,FALSE,Insects,nonword attributes,1.2376237623762376
4303807,22,1.3531799729364005,1,877,45,male,FALSE,Insects,nonword attributes,1.1402508551881414
4303807,23,1.1325028312570782,1,670,45,male,FALSE,Insects,nonword attributes,1.492537313432836
4303807,24,1.7241379310344827,1,895,45,male,FALSE,Insects,nonword attributes,1.1173184357541899
4303807,25,1.3123359580052494,1,921,45,male,FALSE,Insects,nonword attributes,1.0857763300760044
4303807,26,1.2738853503184713,1,761,45,male,FALSE,Insects,nonword attributes,1.314060446780552
4303807,27,0.9487666034155597,1,823,45,male,FALSE,Insects,nonword attributes,1.2150668286755772
4303807,28,1.3736263736263736,1,707,45,male,FALSE,Insects,nonword attributes,1.4144271570014144
4303807,29,1.25,1,676,45,male,FALSE,Insects,nonword attributes,1.4792899408284024
4303807,30,1.218026796589525,1,558,45,male,FALSE,Insects,nonword attributes,1.7921146953405018
4303807,31,1.3568521031207599,1,892,45,male,FALSE,Insects,nonword attributes,1.1210762331838564
4303807,32,1.288659793814433,1,742,45,male,FALSE,Insects,nonword attributes,1.3477088948787062
4303807,33,1.3774104683195592,1,925,45,male,FALSE,Insects,nonword attributes,1.0810810810810811
4303807,34,1.567398119122257,1,645,45,male,FALSE,Insects,nonword attributes,1.550387596899225
4303807,35,1.4684287812041117,1,616,45,male,FALSE,Insects,nonword attributes,1.6233766233766234
4303807,36,1.3386880856760375,1,876,45,male,FALSE,Insects,nonword attributes,1.1415525114155252
4303807,37,1.0131712259371835,1,838,45,male,FALSE,Insects,nonword attributes,1.1933174224343674
4303807,38,1.4880952380952381,1,650,45,male,FALSE,Insects,nonword attributes,1.5384615384615385
4303807,39,1.6835016835016836,1,765,45,male,FALSE,Insects,nonword attributes,1.3071895424836601
4303807,40,1.422475106685633,1,683,45,male,FALSE,Insects,nonword attributes,1.4641288433382138
4303807,41,0.9319664492078286,1,636,45,male,FALSE,Insects,nonword attributes,1.5723270440251573
4303807,42,1.2738853503184713,1,528,45,male,FALSE,Insects,nonword attributes,1.893939393939394
4303807,43,1.0427528675703859,1,416,45,male,FALSE,Insects,nonword attributes,2.4038461538461537
4303807,44,1.2422360248447204,1,652,45,male,FALSE,Insects,nonword attributes,1.5337423312883436
4303807,45,1.4164305949008498,1,711,45,male,FALSE,Insects,nonword attributes,1.4064697609001406
4303807,46,1.4641288433382138,1,849,45,male,FALSE,Insects,nonword attributes,1.1778563015312131
4303807,47,1.8248175182481752,1,723,45,male,FALSE,Insects,nonword attributes,1.3831258644536653
4303807,48,1.1614401858304297,1,835,45,male,FALSE,Insects,nonword attributes,1.1976047904191616
4303807,49,1.303780964797914,1,758,45,male,FALSE,Insects,nonword attributes,1.3192612137203166
4303807,50,0.7283321194464676,1,566,45,male,FALSE,Insects,nonword attributes,1.7667844522968197
4303807,51,1.8867924528301887,1,1084,45,male,FALSE,Insects,nonword attributes,0.922509225092251
4303807,52,1.5384615384615385,1,613,45,male,FALSE,Insects,nonword attributes,1.6313213703099512
4303807,53,1.3793103448275863,1,786,45,male,FALSE,Insects,nonword attributes,1.272264631043257
4303807,54,1.6313213703099512,1,623,45,male,FALSE,Insects,nonword attributes,1.6051364365971108
4303807,55,0.4916420845624385,1,651,45,male,FALSE,Insects,nonword attributes,1.5360983102918586
4303807,56,1.0649627263045793,1,662,45,male,FALSE,Insects,nonword attributes,1.5105740181268883
4303807,57,0.49358341559723595,1,624,45,male,FALSE,Insects,nonword attributes,1.6025641025641026
4303807,58,0.9727626459143969,1,533,45,male,FALSE,Insects,nonword attributes,1.876172607879925
4303807,59,1.25,1,765,45,male,FALSE,Insects,nonword attributes,1.3071895424836601
4303807,60,0.8764241893076249,1,964,45,male,FALSE,Insects,nonword attributes,1.037344398340249
4303807,61,1.3106159895150722,1,786,45,male,FALSE,Insects,nonword attributes,1.272264631043257
4303807,62,1.0141987829614605,1,791,45,male,FALSE,Insects,nonword attributes,1.2642225031605563
4303807,63,1.25,1,645,45,male,FALSE,Insects,nonword attributes,1.550387596899225
4303807,64,1.4792899408284024,1,584,45,male,FALSE,Insects,nonword attributes,1.7123287671232876
4303807,65,1.3054830287206267,1,613,45,male,FALSE,Insects,nonword attributes,1.6313213703099512
4303807,66,1.17096018735363,1,539,45,male,FALSE,Insects,nonword attributes,1.8552875695732838
4303807,67,0.856898029134533,1,498,45,male,FALSE,Insects,nonword attributes,2.0080321285140563
4303807,68,1.4104372355430184,1,644,45,male,FALSE,Insects,nonword attributes,1.5527950310559007
4303807,69,1.5847860538827259,1,551,45,male,FALSE,Insects,nonword attributes,1.8148820326678765
4303807,70,0.7651109410864575,1,599,45,male,FALSE,Insects,nonword attributes,1.669449081803005
5034407,1,1.6233766233766234,1,966,58,female,FALSE,Insects,nonword attributes,1.0351966873706004
5034407,2,1.0482180293501049,1,536,58,female,FALSE,Insects,nonword attributes,1.8656716417910448
5034407,3,1.3157894736842106,1,568,58,female,FALSE,Insects,nonword attributes,1.7605633802816902
5034407,4,1.8181818181818181,1,752,58,female,FALSE,Insects,nonword attributes,1.3297872340425532
5034407,5,1.6,1,812,58,female,FALSE,Insects,nonword attributes,1.2315270935960592
5034407,6,1.8083182640144666,1,528,58,female,FALSE,Insects,nonword attributes,1.893939393939394
5034407,7,1.6233766233766234,1,1047,58,female,FALSE,Insects,nonword attributes,0.9551098376313276
5034407,8,2.1321961620469083,1,695,58,female,FALSE,Insects,nonword attributes,1.4388489208633093
5034407,9,1.7094017094017093,1,613,58,female,FALSE,Insects,nonword attributes,1.6313213703099512
5034407,10,0.5449591280653951,1,547,58,female,FALSE,Insects,nonword attributes,1.8281535648994516
5034407,11,1.7241379310344827,1,584,58,female,FALSE,Insects,nonword attributes,1.7123287671232876
5034407,12,1.8867924528301887,0,1167,58,female,FALSE,Insects,nonword attributes,0.856898029134533
5034407,13,1.607717041800643,1,887,58,female,FALSE,Insects,nonword attributes,1.1273957158962795
5034407,14,1.1160714285714286,1,505,58,female,FALSE,Insects,nonword attributes,1.9801980198019802
5034407,15,2.375296912114014,0,1634,58,female,FALSE,Insects,nonword attributes,0.6119951040391677
5034407,16,0.9066183136899365,1,583,58,female,FALSE,Insects,nonword attributes,1.7152658662092624
5034407,17,1.8281535648994516,1,696,58,female,FALSE,Insects,nonword attributes,1.4367816091954022
5034407,18,1.8552875695732838,1,816,58,female,FALSE,Insects,nonword attributes,1.2254901960784315
5034407,19,2.262443438914027,1,607,58,female,FALSE,Insects,nonword attributes,1.6474464579901154
5034407,20,2.288329519450801,1,588,58,female,FALSE,Insects,nonword attributes,1.7006802721088434
5034407,21,1.8050541516245486,1,575,58,female,FALSE,Insects,nonword attributes,1.7391304347826086
5034407,22,2.2222222222222223,1,635,58,female,FALSE,Insects,nonword attributes,1.5748031496062993
5034407,23,2.092050209205021,0,1678,58,female,FALSE,Insects,nonword attributes,0.5959475566150179
5034407,24,2.5380710659898478,1,541,58,female,FALSE,Insects,nonword attributes,1.8484288354898337
5034407,25,2.506265664160401,1,571,58,female,FALSE,Insects,nonword attributes,1.7513134851138354
5034407,26,1.4326647564469914,1,530,58,female,FALSE,Insects,nonword attributes,1.8867924528301887
5034407,27,1.9047619047619047,1,462,58,female,FALSE,Insects,nonword attributes,2.1645021645021645
5034407,28,2.074688796680498,1,640,58,female,FALSE,Insects,nonword attributes,1.5625
5034407,29,1.6103059581320451,1,521,58,female,FALSE,Insects,nonword attributes,1.9193857965451055
5034407,30,1.6750418760469012,1,893,58,female,FALSE,Insects,nonword attributes,1.1198208286674132
5034407,31,2.207505518763797,1,575,58,female,FALSE,Insects,nonword attributes,1.7391304347826086
5034407,32,1.3850415512465375,1,529,58,female,FALSE,Insects,nonword attributes,1.890359168241966
5034407,33,1.8050541516245486,1,566,58,female,FALSE,Insects,nonword attributes,1.7667844522968197
5034407,34,2,0,1265,58,female,FALSE,Insects,nonword attributes,0.7905138339920948
5034407,35,1.4367816091954022,1,824,58,female,FALSE,Insects,nonword attributes,1.2135922330097086
5034407,36,1.8484288354898337,1,500,58,female,FALSE,Insects,nonword attributes,2
5034407,37,1.36986301369863,1,575,58,female,FALSE,Insects,nonword attributes,1.7391304347826086
5034407,38,1.838235294117647,1,622,58,female,FALSE,Insects,nonword attributes,1.607717041800643
5034407,39,1.763668430335097,1,587,58,female,FALSE,Insects,nonword attributes,1.7035775127768313
5034407,40,1.7921146953405018,1,767,58,female,FALSE,Insects,nonword attributes,1.303780964797914
5034407,41,1.9801980198019802,1,563,58,female,FALSE,Insects,nonword attributes,1.7761989342806395
5034407,42,1.949317738791423,1,660,58,female,FALSE,Insects,nonword attributes,1.5151515151515151
5034407,43,0.6688963210702341,1,544,58,female,FALSE,Insects,nonword attributes,1.838235294117647
5034407,44,1.834862385321101,1,532,58,female,FALSE,Insects,nonword attributes,1.8796992481203008
5034407,45,1.7985611510791366,1,451,58,female,FALSE,Insects,nonword attributes,2.2172949002217295
5034407,46,1.6835016835016836,1,568,58,female,FALSE,Insects,nonword attributes,1.7605633802816902
5034407,47,0.6734006734006734,1,504,58,female,FALSE,Insects,nonword attributes,1.9841269841269842
5034407,48,1.733102253032929,1,477,58,female,FALSE,Insects,nonword attributes,2.0964360587002098
5034407,49,2.2988505747126435,1,447,58,female,FALSE,Insects,nonword attributes,2.237136465324385
5034407,50,1.9047619047619047,1,471,58,female,FALSE,Insects,nonword attributes,2.1231422505307855
5034407,51,1.9920318725099602,1,585,58,female,FALSE,Insects,nonword attributes,1.7094017094017093
5034407,52,2.0876826722338206,1,379,58,female,FALSE,Insects,nonword attributes,2.638522427440633
5034407,53,2.044989775051125,1,675,58,female,FALSE,Insects,nonword attributes,1.4814814814814814
5034407,54,1.721170395869191,1,547,58,female,FALSE,Insects,nonword attributes,1.8281535648994516
5034407,55,1.9083969465648856,1,515,58,female,FALSE,Insects,nonword attributes,1.941747572815534
5034407,56,1.845018450184502,1,572,58,female,FALSE,Insects,nonword attributes,1.7482517482517483
5034407,57,1.9455252918287937,1,543,58,female,FALSE,Insects,nonword attributes,1.8416206261510129
5034407,58,2.1691973969631237,1,585,58,female,FALSE,Insects,nonword attributes,1.7094017094017093
5034407,59,1.9267822736030829,1,606,58,female,FALSE,Insects,nonword attributes,1.6501650165016502
5034407,60,0.9823182711198428,1,580,58,female,FALSE,Insects,nonword attributes,1.7241379310344827
5034407,61,1.8281535648994516,1,756,58,female,FALSE,Insects,nonword attributes,1.3227513227513228
5034407,62,1.8281535648994516,1,598,58,female,FALSE,Insects,nonword attributes,1.6722408026755853
5034407,63,1.3368983957219251,1,466,58,female,FALSE,Insects,nonword attributes,2.1459227467811157
5034407,64,2.1459227467811157,1,520,58,female,FALSE,Insects,nonword attributes,1.9230769230769231
5034407,65,1.4534883720930232,1,773,58,female,FALSE,Insects,nonword attributes,1.2936610608020698
5034407,66,2.3696682464454977,1,468,58,female,FALSE,Insects,nonword attributes,2.1367521367521367
5034407,67,2.1367521367521367,1,673,58,female,FALSE,Insects,nonword attributes,1.485884101040119
5034407,68,2.5641025641025643,1,357,58,female,FALSE,Insects,nonword attributes,2.8011204481792715
5034407,69,1.9920318725099602,1,348,58,female,FALSE,Insects,nonword attributes,2.8735632183908044
5034407,70,2.1141649048625792,1,510,58,female,FALSE,Insects,nonword attributes,1.9607843137254901
8322462,1,0.5878894767783657,1,660,25,female,FALSE,Insects,opposite valenced attributes,1.5151515151515151
8322462,2,1.9569471624266144,1,357,25,female,FALSE,Insects,opposite valenced attributes,2.8011204481792715
8322462,3,2.0408163265306123,1,454,25,female,FALSE,Insects,opposite valenced attributes,2.202643171806167
8322462,4,1.6501650165016502,1,407,25,female,FALSE,Insects,opposite valenced attributes,2.457002457002457
8322462,5,1.7271157167530224,1,451,25,female,FALSE,Insects,opposite valenced attributes,2.2172949002217295
8322462,6,2.272727272727273,0,839,25,female,FALSE,Insects,opposite valenced attributes,1.1918951132300357
8322462,7,2.375296912114014,1,515,25,female,FALSE,Insects,opposite valenced attributes,1.941747572815534
8322462,8,1.4727540500736378,1,550,25,female,FALSE,Insects,opposite valenced attributes,1.8181818181818181
8322462,9,1.3297872340425532,1,494,25,female,FALSE,Insects,opposite valenced attributes,2.0242914979757085
8322462,10,2.450980392156863,1,562,25,female,FALSE,Insects,opposite valenced attributes,1.7793594306049823
8322462,11,1.3793103448275863,1,511,25,female,FALSE,Insects,opposite valenced attributes,1.9569471624266144
8322462,12,2.1691973969631237,1,586,25,female,FALSE,Insects,opposite valenced attributes,1.7064846416382253
8322462,13,2.0964360587002098,1,516,25,female,FALSE,Insects,opposite valenced attributes,1.937984496124031
8322462,14,2.2271714922048997,1,526,25,female,FALSE,Insects,opposite valenced attributes,1.9011406844106464
8322462,15,1.25,1,510,25,female,FALSE,Insects,opposite valenced attributes,1.9607843137254901
8322462,16,1.4347202295552368,1,393,25,female,FALSE,Insects,opposite valenced attributes,2.544529262086514
8322462,17,1.893939393939394,1,448,25,female,FALSE,Insects,opposite valenced attributes,2.232142857142857
8322462,18,2.0964360587002098,1,477,25,female,FALSE,Insects,opposite valenced attributes,2.0964360587002098
8322462,19,1.4705882352941178,1,533,25,female,FALSE,Insects,opposite valenced attributes,1.876172607879925
8322462,20,0.7092198581560284,1,660,25,female,FALSE,Insects,opposite valenced attributes,1.5151515151515151
8322462,21,1.893939393939394,1,407,25,female,FALSE,Insects,opposite valenced attributes,2.457002457002457
8322462,22,1.6420361247947455,1,594,25,female,FALSE,Insects,opposite valenced attributes,1.6835016835016836
8322462,23,1.1111111111111112,1,553,25,female,FALSE,Insects,opposite valenced attributes,1.8083182640144666
8322462,24,1.7391304347826086,1,605,25,female,FALSE,Insects,opposite valenced attributes,1.6528925619834711
8322462,25,1.443001443001443,1,390,25,female,FALSE,Insects,opposite valenced attributes,2.5641025641025643
8322462,26,0.513083632632119,1,434,25,female,FALSE,Insects,opposite valenced attributes,2.304147465437788
8322462,27,1.5923566878980893,0,910,25,female,FALSE,Insects,opposite valenced attributes,1.098901098901099
8322462,28,0.5770340450086555,1,389,25,female,FALSE,Insects,opposite valenced attributes,2.570694087403599
8322462,29,2.0661157024793386,1,515,25,female,FALSE,Insects,opposite valenced attributes,1.941747572815534
8322462,30,1.663893510815308,1,544,25,female,FALSE,Insects,opposite valenced attributes,1.838235294117647
8322462,31,1.594896331738437,1,544,25,female,FALSE,Insects,opposite valenced attributes,1.838235294117647
8322462,32,1.893939393939394,1,443,25,female,FALSE,Insects,opposite valenced attributes,2.2573363431151243
8322462,33,1.5037593984962405,1,547,25,female,FALSE,Insects,opposite valenced attributes,1.8281535648994516
8322462,34,1.763668430335097,1,406,25,female,FALSE,Insects,opposite valenced attributes,2.4630541871921183
8322462,35,1.124859392575928,1,508,25,female,FALSE,Insects,opposite valenced attributes,1.968503937007874
8322462,36,2,1,429,25,female,FALSE,Insects,opposite valenced attributes,2.331002331002331
8322462,37,1.7035775127768313,0,845,25,female,FALSE,Insects,opposite valenced attributes,1.183431952662722
8322462,38,2.1052631578947367,1,516,25,female,FALSE,Insects,opposite valenced attributes,1.937984496124031
8322462,39,2.6178010471204187,1,446,25,female,FALSE,Insects,opposite valenced attributes,2.242152466367713
8322462,40,2.1141649048625792,1,431,25,female,FALSE,Insects,opposite valenced attributes,2.320185614849188
8322462,41,2.34192037470726,1,591,25,female,FALSE,Insects,opposite valenced attributes,1.6920473773265652
8322462,42,1.3297872340425532,1,860,25,female,FALSE,Insects,opposite valenced attributes,1.1627906976744187
8322462,44,1.4903129657228018,1,602,25,female,FALSE,Insects,opposite valenced attributes,1.6611295681063123
8322462,45,1.335113484646195,1,595,25,female,FALSE,Insects,opposite valenced attributes,1.680672268907563
8322462,47,2.4630541871921183,1,433,25,female,FALSE,Insects,opposite valenced attributes,2.3094688221709005
8322462,48,1.7301038062283738,1,362,25,female,FALSE,Insects,opposite valenced attributes,2.7624309392265194
8322462,49,2.178649237472767,1,398,25,female,FALSE,Insects,opposite valenced attributes,2.512562814070352
8322462,50,1.7035775127768313,1,527,25,female,FALSE,Insects,opposite valenced attributes,1.8975332068311195
8322462,51,1.9083969465648856,1,356,25,female,FALSE,Insects,opposite valenced attributes,2.808988764044944
8322462,52,2.2988505747126435,1,509,25,female,FALSE,Insects,opposite valenced attributes,1.9646365422396856
8322462,53,0.9765625,0,843,25,female,FALSE,Insects,opposite valenced attributes,1.1862396204033214
8322462,54,2.0876826722338206,1,597,25,female,FALSE,Insects,opposite valenced attributes,1.6750418760469012
8322462,55,2.331002331002331,1,661,25,female,FALSE,Insects,opposite valenced attributes,1.51285930408472
8322462,56,2.386634844868735,1,484,25,female,FALSE,Insects,opposite valenced attributes,2.0661157024793386
8322462,57,1.8248175182481752,1,364,25,female,FALSE,Insects,opposite valenced attributes,2.7472527472527473
8322462,58,2.262443438914027,1,370,25,female,FALSE,Insects,opposite valenced attributes,2.7027027027027026
8322462,59,0.6891798759476223,1,383,25,female,FALSE,Insects,opposite valenced attributes,2.6109660574412534
8322462,60,1.8975332068311195,1,460,25,female,FALSE,Insects,opposite valenced attributes,2.1739130434782608
8322462,61,1.25,0,827,25,female,FALSE,Insects,opposite valenced attributes,1.2091898428053205
8322462,62,1.4727540500736378,1,502,25,female,FALSE,Insects,opposite valenced attributes,1.9920318725099602
8322462,63,2.1141649048625792,1,562,25,female,FALSE,Insects,opposite valenced attributes,1.7793594306049823
8322462,64,2.4813895781637716,1,562,25,female,FALSE,Insects,opposite valenced attributes,1.7793594306049823
8322462,65,1.3966480446927374,1,607,25,female,FALSE,Insects,opposite valenced attributes,1.6474464579901154
8322462,66,2.525252525252525,1,429,25,female,FALSE,Insects,opposite valenced attributes,2.331002331002331
8322462,67,2.380952380952381,1,475,25,female,FALSE,Insects,opposite valenced attributes,2.1052631578947367
8322462,68,2.358490566037736,1,487,25,female,FALSE,Insects,opposite valenced attributes,2.0533880903490758
8322462,69,1.6528925619834711,1,501,25,female,FALSE,Insects,opposite valenced attributes,1.996007984031936
8322462,70,1.8691588785046729,1,601,25,female,FALSE,Insects,opposite valenced attributes,1.663893510815308
8547204,1,1.3054830287206267,1,739,35,female,FALSE,Flowers,nonword attributes,1.3531799729364005
8547204,2,1.876172607879925,1,418,35,female,FALSE,Flowers,nonword attributes,2.3923444976076556
8547204,3,1.7271157167530224,1,434,35,female,FALSE,Flowers,nonword attributes,2.304147465437788
8547204,4,1.6129032258064515,1,638,35,female,FALSE,Flowers,nonword attributes,1.567398119122257
8547204,5,2.34192037470726,1,498,35,female,FALSE,Flowers,nonword attributes,2.0080321285140563
8547204,6,1.6233766233766234,1,537,35,female,FALSE,Flowers,nonword attributes,1.86219739292365
8547204,7,1.9193857965451055,1,458,35,female,FALSE,Flowers,nonword attributes,2.183406113537118
8547204,8,1.644736842105263,1,784,35,female,FALSE,Flowers,nonword attributes,1.2755102040816326
8547204,9,1.680672268907563,1,553,35,female,FALSE,Flowers,nonword attributes,1.8083182640144666
8547204,10,2.4330900243309004,1,606,35,female,FALSE,Flowers,nonword attributes,1.6501650165016502
8547204,11,2.358490566037736,1,702,35,female,FALSE,Flowers,nonword attributes,1.4245014245014245
8547204,12,2.262443438914027,1,726,35,female,FALSE,Flowers,nonword attributes,1.3774104683195592
8547204,13,1.8115942028985508,1,472,35,female,FALSE,Flowers,nonword attributes,2.1186440677966103
8547204,14,1.7391304347826086,1,412,35,female,FALSE,Flowers,nonword attributes,2.4271844660194173
8547204,15,1.996007984031936,1,667,35,female,FALSE,Flowers,nonword attributes,1.4992503748125936
8547204,16,1.8691588785046729,1,764,35,female,FALSE,Flowers,nonword attributes,1.3089005235602094
8547204,17,1.976284584980237,1,619,35,female,FALSE,Flowers,nonword attributes,1.615508885298869
8547204,18,2.6455026455026456,1,1059,35,female,FALSE,Flowers,nonword attributes,0.9442870632672332
8547204,19,1.6,1,664,35,female,FALSE,Flowers,nonword attributes,1.5060240963855422
8547204,20,1.7793594306049823,1,515,35,female,FALSE,Flowers,nonword attributes,1.941747572815534
8547204,21,1.976284584980237,1,635,35,female,FALSE,Flowers,nonword attributes,1.5748031496062993
8547204,22,1.663893510815308,1,544,35,female,FALSE,Flowers,nonword attributes,1.838235294117647
8547204,23,2.028397565922921,1,485,35,female,FALSE,Flowers,nonword attributes,2.0618556701030926
8547204,24,1.4005602240896358,1,514,35,female,FALSE,Flowers,nonword attributes,1.9455252918287937
8547204,25,1.2853470437017995,1,509,35,female,FALSE,Flowers,nonword attributes,1.9646365422396856
8547204,26,1.4184397163120568,1,462,35,female,FALSE,Flowers,nonword attributes,2.1645021645021645
8547204,27,1.349527665317139,1,486,35,female,FALSE,Flowers,nonword attributes,2.05761316872428
8547204,28,1.9607843137254901,1,455,35,female,FALSE,Flowers,nonword attributes,2.197802197802198
8547204,29,1.6025641025641026,1,751,35,female,FALSE,Flowers,nonword attributes,1.3315579227696406
8547204,30,1.7513134851138354,1,554,35,female,FALSE,Flowers,nonword attributes,1.8050541516245486
8547204,31,1.5360983102918586,1,527,35,female,FALSE,Flowers,nonword attributes,1.8975332068311195
8547204,32,1.9455252918287937,1,616,35,female,FALSE,Flowers,nonword attributes,1.6233766233766234
8547204,33,1.6207455429497568,1,534,35,female,FALSE,Flowers,nonword attributes,1.8726591760299625
8547204,34,2.0661157024793386,1,543,35,female,FALSE,Flowers,nonword attributes,1.8416206261510129
8547204,35,1.5267175572519085,1,713,35,female,FALSE,Flowers,nonword attributes,1.402524544179523
8547204,36,2.34192037470726,1,749,35,female,FALSE,Flowers,nonword attributes,1.335113484646195
8547204,37,1.1682242990654206,1,624,35,female,FALSE,Flowers,nonword attributes,1.6025641025641026
8547204,38,2,1,662,35,female,FALSE,Flowers,nonword attributes,1.5105740181268883
8547204,39,1.6863406408094435,1,628,35,female,FALSE,Flowers,nonword attributes,1.5923566878980893
8547204,40,1.7793594306049823,1,685,35,female,FALSE,Flowers,nonword attributes,1.4598540145985401
8547204,41,1.968503937007874,0,846,35,female,FALSE,Flowers,nonword attributes,1.1820330969267139
8547204,42,2.127659574468085,1,672,35,female,FALSE,Flowers,nonword attributes,1.4880952380952381
8547204,43,2.237136465324385,1,649,35,female,FALSE,Flowers,nonword attributes,1.5408320493066257
8547204,44,1.4749262536873156,1,603,35,female,FALSE,Flowers,nonword attributes,1.658374792703151
8547204,45,1.4814814814814814,1,456,35,female,FALSE,Flowers,nonword attributes,2.192982456140351
8547204,46,1.9120458891013383,1,419,35,female,FALSE,Flowers,nonword attributes,2.386634844868735
8547204,47,2.0080321285140563,1,457,35,female,FALSE,Flowers,nonword attributes,2.1881838074398248
8547204,48,2.0080321285140563,1,479,35,female,FALSE,Flowers,nonword attributes,2.0876826722338206
8547204,49,1.8181818181818181,1,565,35,female,FALSE,Flowers,nonword attributes,1.7699115044247788
8547204,50,1.9455252918287937,1,784,35,female,FALSE,Flowers,nonword attributes,1.2755102040816326
8547204,51,2.4038461538461537,1,493,35,female,FALSE,Flowers,nonword attributes,2.028397565922921
8547204,52,1.8796992481203008,1,1035,35,female,FALSE,Flowers,nonword attributes,0.966183574879227
8547204,53,2.4752475247524752,1,599,35,female,FALSE,Flowers,nonword attributes,1.669449081803005
8547204,54,1.1402508551881414,1,552,35,female,FALSE,Flowers,nonword attributes,1.8115942028985508
8547204,55,1.3003901170351104,1,525,35,female,FALSE,Flowers,nonword attributes,1.9047619047619047
8547204,56,1.1764705882352942,1,703,35,female,FALSE,Flowers,nonword attributes,1.422475106685633
8547204,57,2.1186440677966103,1,763,35,female,FALSE,Flowers,nonword attributes,1.3106159895150722
8547204,58,2.3923444976076556,1,471,35,female,FALSE,Flowers,nonword attributes,2.1231422505307855
8547204,59,2.5380710659898478,0,1593,35,female,FALSE,Flowers,nonword attributes,0.6277463904582549
8547204,60,1.5220700152207,1,525,35,female,FALSE,Flowers,nonword attributes,1.9047619047619047
8547204,61,2.1321961620469083,1,634,35,female,FALSE,Flowers,nonword attributes,1.5772870662460567
8547204,62,2.0618556701030926,1,576,35,female,FALSE,Flowers,nonword attributes,1.7361111111111112
8547204,63,0.9523809523809523,0,914,35,female,FALSE,Flowers,nonword attributes,1.0940919037199124
8547204,64,2.4213075060532687,1,585,35,female,FALSE,Flowers,nonword attributes,1.7094017094017093
8547204,65,2.1367521367521367,1,525,35,female,FALSE,Flowers,nonword attributes,1.9047619047619047
8547204,66,1.8050541516245486,1,572,35,female,FALSE,Flowers,nonword attributes,1.7482517482517483
8547204,67,2.288329519450801,1,619,35,female,FALSE,Flowers,nonword attributes,1.615508885298869
8547204,68,1.9607843137254901,1,544,35,female,FALSE,Flowers,nonword attributes,1.838235294117647
8547204,69,1.8050541516245486,1,436,35,female,FALSE,Flowers,nonword attributes,2.293577981651376
8547204,70,1.2853470437017995,1,476,35,female,FALSE,Flowers,nonword attributes,2.100840336134454
10534696,1,0.7147962830593281,1,1330,37,female,FALSE,Insects,nonword attributes,0.7518796992481203
10534696,2,1.6556291390728477,1,1125,37,female,FALSE,Insects,nonword attributes,0.8888888888888888
10534696,3,1.7543859649122806,1,540,37,female,FALSE,Insects,nonword attributes,1.8518518518518519
10534696,4,1.615508885298869,1,815,37,female,FALSE,Insects,nonword attributes,1.2269938650306749
10534696,5,2.2522522522522523,1,530,37,female,FALSE,Insects,nonword attributes,1.8867924528301887
10534696,6,1.3123359580052494,1,523,37,female,FALSE,Insects,nonword attributes,1.9120458891013383
10534696,7,1.3679890560875514,1,1032,37,female,FALSE,Insects,nonword attributes,0.9689922480620154
10534696,8,1.5105740181268883,1,490,37,female,FALSE,Insects,nonword attributes,2.0408163265306123
10534696,9,1.4641288433382138,1,625,37,female,FALSE,Insects,nonword attributes,1.6
10534696,10,1.4771048744460857,1,925,37,female,FALSE,Insects,nonword attributes,1.0810810810810811
10534696,11,2.3923444976076556,1,612,37,female,FALSE,Insects,nonword attributes,1.6339869281045751
10534696,12,1.7064846416382253,1,446,37,female,FALSE,Insects,nonword attributes,2.242152466367713
10534696,13,2.293577981651376,1,741,37,female,FALSE,Insects,nonword attributes,1.349527665317139
10534696,14,1.8018018018018018,1,400,37,female,FALSE,Insects,nonword attributes,2.5
10534696,15,1.0460251046025104,1,704,37,female,FALSE,Insects,nonword attributes,1.4204545454545454
10534696,16,1.0405827263267429,1,842,37,female,FALSE,Insects,nonword attributes,1.187648456057007
10534696,17,1.3550135501355014,1,722,37,female,FALSE,Insects,nonword attributes,1.3850415512465375
10534696,18,1.303780964797914,1,634,37,female,FALSE,Insects,nonword attributes,1.5772870662460567
10534696,19,0.9182736455463728,1,543,37,female,FALSE,Insects,nonword attributes,1.8416206261510129
10534696,20,1.4124293785310735,1,729,37,female,FALSE,Insects,nonword attributes,1.3717421124828533
10534696,21,1.7699115044247788,1,556,37,female,FALSE,Insects,nonword attributes,1.7985611510791366
10534696,22,2.2172949002217295,1,696,37,female,FALSE,Insects,nonword attributes,1.4367816091954022
10534696,23,1.9267822736030829,1,1238,37,female,FALSE,Insects,nonword attributes,0.8077544426494345
10534696,24,1.7793594306049823,1,643,37,female,FALSE,Insects,nonword attributes,1.5552099533437014
10534696,25,2.1413276231263385,1,504,37,female,FALSE,Insects,nonword attributes,1.9841269841269842
10534696,26,2.375296912114014,1,681,37,female,FALSE,Insects,nonword attributes,1.4684287812041117
10534696,27,1.949317738791423,1,544,37,female,FALSE,Insects,nonword attributes,1.838235294117647
10534696,28,1.3513513513513513,1,624,37,female,FALSE,Insects,nonword attributes,1.6025641025641026
10534696,29,1.8867924528301887,1,1509,37,female,FALSE,Insects,nonword attributes,0.6626905235255136
10534696,30,2.0242914979757085,1,780,37,female,FALSE,Insects,nonword attributes,1.2820512820512822
10534696,31,2.358490566037736,1,686,37,female,FALSE,Insects,nonword attributes,1.4577259475218658
10534696,32,1.7361111111111112,1,642,37,female,FALSE,Insects,nonword attributes,1.557632398753894
10534696,33,1.4992503748125936,1,808,37,female,FALSE,Insects,nonword attributes,1.2376237623762376
10534696,34,1.5151515151515151,1,571,37,female,FALSE,Insects,nonword attributes,1.7513134851138354
10534696,35,1.1547344110854503,1,485,37,female,FALSE,Insects,nonword attributes,2.0618556701030926
10534696,36,1.7182130584192439,1,621,37,female,FALSE,Insects,nonword attributes,1.6103059581320451
10534696,37,1.763668430335097,1,967,37,female,FALSE,Insects,nonword attributes,1.0341261633919339
10534696,38,2.1551724137931036,1,566,37,female,FALSE,Insects,nonword attributes,1.7667844522968197
10534696,39,2.5188916876574305,1,1278,37,female,FALSE,Insects,nonword attributes,0.7824726134585289
10534696,40,1.6556291390728477,1,1149,37,female,FALSE,Insects,nonword attributes,0.8703220191470844
10534696,41,1.845018450184502,1,999,37,female,FALSE,Insects,nonword attributes,1.001001001001001
10534696,42,1.5174506828528074,1,798,37,female,FALSE,Insects,nonword attributes,1.2531328320802004
10534696,43,1.5151515151515151,0,1774,37,female,FALSE,Insects,nonword attributes,0.5636978579481398
10534696,44,1.6891891891891893,1,1478,37,female,FALSE,Insects,nonword attributes,0.6765899864682002
10534696,45,1.5923566878980893,1,546,37,female,FALSE,Insects,nonword attributes,1.8315018315018314
10534696,46,1.7301038062283738,1,743,37,female,FALSE,Insects,nonword attributes,1.3458950201884252
10534696,47,0.7776049766718507,1,919,37,female,FALSE,Insects,nonword attributes,1.088139281828074
10534696,48,1.6666666666666667,1,785,37,female,FALSE,Insects,nonword attributes,1.2738853503184713
10534696,49,1.7271157167530224,1,460,37,female,FALSE,Insects,nonword attributes,2.1739130434782608
10534696,50,2.1367521367521367,0,1403,37,female,FALSE,Insects,nonword attributes,0.7127583749109052
10534696,51,1.5625,,,,,,,,
10534696,53,0.9328358208955224,1,728,37,female,FALSE,Insects,nonword attributes,1.3736263736263736
10534696,54,2.1413276231263385,1,816,37,female,FALSE,Insects,nonword attributes,1.2254901960784315
10534696,55,1.8050541516245486,1,438,37,female,FALSE,Insects,nonword attributes,2.2831050228310503
10534696,56,1.7006802721088434,1,628,37,female,FALSE,Insects,nonword attributes,1.5923566878980893
10534696,57,2.2522522522522523,1,568,37,female,FALSE,Insects,nonword attributes,1.7605633802816902
10534696,58,2.0618556701030926,1,430,37,female,FALSE,Insects,nonword attributes,2.3255813953488373
10534696,59,2.3980815347721824,1,582,37,female,FALSE,Insects,nonword attributes,1.7182130584192439
10534696,60,1.0893246187363834,1,576,37,female,FALSE,Insects,nonword attributes,1.7361111111111112
10534696,61,1.2345679012345678,1,829,37,female,FALSE,Insects,nonword attributes,1.2062726176115801
10534696,62,2.1231422505307855,1,704,37,female,FALSE,Insects,nonword attributes,1.4204545454545454
10534696,63,1.721170395869191,1,1366,37,female,FALSE,Insects,nonword attributes,0.7320644216691069
10534696,64,1.615508885298869,1,973,37,female,FALSE,Insects,nonword attributes,1.027749229188078
10534696,65,1.6891891891891893,1,1012,37,female,FALSE,Insects,nonword attributes,0.9881422924901185
10534696,66,1.545595054095827,1,634,37,female,FALSE,Insects,nonword attributes,1.5772870662460567
10534696,67,1.1534025374855825,1,1231,37,female,FALSE,Insects,nonword attributes,0.8123476848090982
10534696,68,2.34192037470726,1,672,37,female,FALSE,Insects,nonword attributes,1.4880952380952381
10534696,69,1.4326647564469914,1,1319,37,female,FALSE,Insects,nonword attributes,0.7581501137225171
10534696,70,1.3245033112582782,1,673,37,female,FALSE,Insects,nonword attributes,1.485884101040119
10899483,1,1.7391304347826086,1,560,28,female,FALSE,Flowers,nonword attributes,1.7857142857142858
10899483,2,2.525252525252525,1,430,28,female,FALSE,Flowers,nonword attributes,2.3255813953488373
10899483,3,2.358490566037736,1,457,28,female,FALSE,Flowers,nonword attributes,2.1881838074398248
10899483,4,2.4813895781637716,1,435,28,female,FALSE,Flowers,nonword attributes,2.2988505747126435
10899483,5,2.0533880903490758,1,389,28,female,FALSE,Flowers,nonword attributes,2.570694087403599
10899483,6,2.0491803278688523,1,394,28,female,FALSE,Flowers,nonword attributes,2.5380710659898478
10899483,7,2.7777777777777777,1,374,28,female,FALSE,Flowers,nonword attributes,2.6737967914438503
10899483,8,2.2831050228310503,1,420,28,female,FALSE,Flowers,nonword attributes,2.380952380952381
10899483,9,2.2675736961451247,0,815,28,female,FALSE,Flowers,nonword attributes,1.2269938650306749
10899483,10,2.4330900243309004,1,578,28,female,FALSE,Flowers,nonword attributes,1.7301038062283738
10899483,11,2.0202020202020203,1,550,28,female,FALSE,Flowers,nonword attributes,1.8181818181818181
10899483,12,1.8416206261510129,1,428,28,female,FALSE,Flowers,nonword attributes,2.336448598130841
10899483,13,2.1645021645021645,1,359,28,female,FALSE,Flowers,nonword attributes,2.785515320334262
10899483,14,1.8691588785046729,1,493,28,female,FALSE,Flowers,nonword attributes,2.028397565922921
10899483,15,2.242152466367713,1,413,28,female,FALSE,Flowers,nonword attributes,2.4213075060532687
10899483,16,2.5974025974025974,1,361,28,female,FALSE,Flowers,nonword attributes,2.770083102493075
10899483,17,2.288329519450801,1,439,28,female,FALSE,Flowers,nonword attributes,2.277904328018223
10899483,18,2.1231422505307855,1,393,28,female,FALSE,Flowers,nonword attributes,2.544529262086514
10899483,19,1.893939393939394,1,494,28,female,FALSE,Flowers,nonword attributes,2.0242914979757085
10899483,20,1.3458950201884252,1,374,28,female,FALSE,Flowers,nonword attributes,2.6737967914438503
10899483,21,2.2522522522522523,1,772,28,female,FALSE,Flowers,nonword attributes,1.2953367875647668
10899483,22,2.0533880903490758,1,384,28,female,FALSE,Flowers,nonword attributes,2.6041666666666665
10899483,23,1.9569471624266144,1,565,28,female,FALSE,Flowers,nonword attributes,1.7699115044247788
10899483,24,1.2515644555694618,1,458,28,female,FALSE,Flowers,nonword attributes,2.183406113537118
10899483,25,2.0080321285140563,1,388,28,female,FALSE,Flowers,nonword attributes,2.577319587628866
10899483,26,1.1862396204033214,1,521,28,female,FALSE,Flowers,nonword attributes,1.9193857965451055
10899483,27,1.8518518518518519,0,640,28,female,FALSE,Flowers,nonword attributes,1.5625
10899483,28,2.262443438914027,1,434,28,female,FALSE,Flowers,nonword attributes,2.304147465437788
10899483,29,1.4598540145985401,0,708,28,female,FALSE,Flowers,nonword attributes,1.4124293785310735
10899483,30,2.1739130434782608,1,898,28,female,FALSE,Flowers,nonword attributes,1.1135857461024499
10899483,31,1.0101010101010102,1,690,28,female,FALSE,Flowers,nonword attributes,1.4492753623188406
10899483,32,1.5408320493066257,1,522,28,female,FALSE,Flowers,nonword attributes,1.9157088122605364
10899483,33,1.3245033112582782,1,401,28,female,FALSE,Flowers,nonword attributes,2.493765586034913
10899483,34,2.493765586034913,1,501,28,female,FALSE,Flowers,nonword attributes,1.996007984031936
10899483,35,1.9083969465648856,0,820,28,female,FALSE,Flowers,nonword attributes,1.2195121951219512
10899483,36,1.4641288433382138,1,1254,28,female,FALSE,Flowers,nonword attributes,0.7974481658692185
10899483,37,0.8779631255487269,0,774,28,female,FALSE,Flowers,nonword attributes,1.2919896640826873
10899483,38,1.288659793814433,1,402,28,female,FALSE,Flowers,nonword attributes,2.487562189054726
10899483,39,1.6556291390728477,1,382,28,female,FALSE,Flowers,nonword attributes,2.6178010471204187
10899483,40,1.5060240963855422,,,,,,,,
10899483,41,2.079002079002079,1,442,28,female,FALSE,Flowers,nonword attributes,2.262443438914027
10899483,42,1.4992503748125936,0,645,28,female,FALSE,Flowers,nonword attributes,1.550387596899225
10899483,43,2.2172949002217295,1,790,28,female,FALSE,Flowers,nonword attributes,1.2658227848101267
10899483,44,1.6750418760469012,,,,,,,,
10899483,45,1.9193857965451055,1,1081,28,female,FALSE,Flowers,nonword attributes,0.9250693802035153
10899483,46,1.838235294117647,1,937,28,female,FALSE,Flowers,nonword attributes,1.0672358591248665
10899483,47,1.845018450184502,1,582,28,female,FALSE,Flowers,nonword attributes,1.7182130584192439
10899483,48,1.5723270440251573,1,1171,28,female,FALSE,Flowers,nonword attributes,0.8539709649871904
10899483,49,1.607717041800643,,,,,,,,
10899483,50,1.7094017094017093,1,973,28,female,FALSE,Flowers,nonword attributes,1.027749229188078
10899483,51,0.7930214115781126,1,633,28,female,FALSE,Flowers,nonword attributes,1.5797788309636651
10899483,52,1.7953321364452424,1,643,28,female,FALSE,Flowers,nonword attributes,1.5552099533437014
10899483,53,1.8867924528301887,,,,,,,,
10899483,54,1.86219739292365,1,706,28,female,FALSE,Flowers,nonword attributes,1.4164305949008498
10899483,55,1.1363636363636365,1,1057,28,female,FALSE,Flowers,nonword attributes,0.9460737937559129
10899483,56,2.277904328018223,,,,,,,,
10899483,57,1.3404825737265416,1,598,28,female,FALSE,Flowers,nonword attributes,1.6722408026755853
10899483,58,2.1551724137931036,,,,,,,,
10899483,59,1.6,1,1007,28,female,FALSE,Flowers,nonword attributes,0.9930486593843099
10899483,60,0.966183574879227,1,561,28,female,FALSE,Flowers,nonword attributes,1.7825311942959001
10899483,62,2.0876826722338206,1,1487,28,female,FALSE,Flowers,nonword attributes,0.6724949562878278
10899483,63,2.3529411764705883,,,,,,,,
10899483,64,2.577319587628866,0,1420,28,female,FALSE,Flowers,nonword attributes,0.704225352112676
10899483,65,2.0833333333333335,1,1092,28,female,FALSE,Flowers,nonword attributes,0.9157509157509157
10899483,66,2.2271714922048997,1,779,28,female,FALSE,Flowers,nonword attributes,1.2836970474967908
10899483,67,1.0638297872340425,1,735,28,female,FALSE,Flowers,nonword attributes,1.3605442176870748
10899483,68,2.314814814814815,1,1741,28,female,FALSE,Flowers,nonword attributes,0.5743825387708213
10899483,69,1.221001221001221,1,665,28,female,FALSE,Flowers,nonword attributes,1.5037593984962405
10899483,70,0.8298755186721992,,,,,,,,
12710550,1,1.1668611435239207,1,894,62,female,FALSE,Insects,opposite valenced attributes,1.1185682326621924
12710550,2,1.9607843137254901,1,681,62,female,FALSE,Insects,opposite valenced attributes,1.4684287812041117
12710550,3,1.9083969465648856,1,1219,62,female,FALSE,Insects,opposite valenced attributes,0.8203445447087777
12710550,4,1.0351966873706004,1,653,62,female,FALSE,Insects,opposite valenced attributes,1.5313935681470139
12710550,5,1.358695652173913,1,591,62,female,FALSE,Insects,opposite valenced attributes,1.6920473773265652
12710550,6,2.183406113537118,1,601,62,female,FALSE,Insects,opposite valenced attributes,1.663893510815308
12710550,7,1.7241379310344827,1,733,62,female,FALSE,Insects,opposite valenced attributes,1.364256480218281
12710550,8,1.6611295681063123,1,670,62,female,FALSE,Insects,opposite valenced attributes,1.492537313432836
12710550,9,1.721170395869191,1,733,62,female,FALSE,Insects,opposite valenced attributes,1.364256480218281
12710550,10,1.6611295681063123,1,656,62,female,FALSE,Insects,opposite valenced attributes,1.524390243902439
12710550,11,1.6474464579901154,1,520,62,female,FALSE,Insects,opposite valenced attributes,1.9230769230769231
12710550,12,0.8340283569641368,1,552,62,female,FALSE,Insects,opposite valenced attributes,1.8115942028985508
12710550,13,1.5797788309636651,1,504,62,female,FALSE,Insects,opposite valenced attributes,1.9841269841269842
12710550,14,1.6,1,637,62,female,FALSE,Insects,opposite valenced attributes,1.5698587127158556
12710550,15,0.9861932938856016,1,618,62,female,FALSE,Insects,opposite valenced attributes,1.6181229773462784
12710550,16,2.2222222222222223,1,749,62,female,FALSE,Insects,opposite valenced attributes,1.335113484646195
12710550,17,1.4992503748125936,1,1009,62,female,FALSE,Insects,opposite valenced attributes,0.9910802775024777
12710550,18,1.6051364365971108,1,638,62,female,FALSE,Insects,opposite valenced attributes,1.567398119122257
12710550,19,1.5772870662460567,1,716,62,female,FALSE,Insects,opposite valenced attributes,1.3966480446927374
12710550,20,1.3812154696132597,1,1026,62,female,FALSE,Insects,opposite valenced attributes,0.9746588693957114
12710550,21,1.545595054095827,1,557,62,female,FALSE,Insects,opposite valenced attributes,1.7953321364452424
12710550,22,1.6528925619834711,1,605,62,female,FALSE,Insects,opposite valenced attributes,1.6528925619834711
12710550,23,2.1551724137931036,1,601,62,female,FALSE,Insects,opposite valenced attributes,1.663893510815308
12710550,24,1.567398119122257,1,675,62,female,FALSE,Insects,opposite valenced attributes,1.4814814814814814
12710550,25,1.6722408026755853,1,692,62,female,FALSE,Insects,opposite valenced attributes,1.4450867052023122
12710550,26,1.2836970474967908,1,511,62,female,FALSE,Insects,opposite valenced attributes,1.9569471624266144
12710550,27,1.0672358591248665,1,650,62,female,FALSE,Insects,opposite valenced attributes,1.5384615384615385
12710550,28,1.5337423312883436,1,610,62,female,FALSE,Insects,opposite valenced attributes,1.639344262295082
12710550,29,1.3831258644536653,1,600,62,female,FALSE,Insects,opposite valenced attributes,1.6666666666666667
12710550,30,1.1848341232227488,1,1048,62,female,FALSE,Insects,opposite valenced attributes,0.9541984732824428
12710550,31,1.524390243902439,1,608,62,female,FALSE,Insects,opposite valenced attributes,1.644736842105263
12710550,32,1.3888888888888888,1,668,62,female,FALSE,Insects,opposite valenced attributes,1.4970059880239521
12710550,33,1.5723270440251573,1,611,62,female,FALSE,Insects,opposite valenced attributes,1.6366612111292962
12710550,34,1.7730496453900708,1,568,62,female,FALSE,Insects,opposite valenced attributes,1.7605633802816902
12710550,35,1.694915254237288,1,682,62,female,FALSE,Insects,opposite valenced attributes,1.466275659824047
12710550,36,1.669449081803005,1,706,62,female,FALSE,Insects,opposite valenced attributes,1.4164305949008498
12710550,37,1.447178002894356,1,682,62,female,FALSE,Insects,opposite valenced attributes,1.466275659824047
12710550,38,1.447178002894356,1,557,62,female,FALSE,Insects,opposite valenced attributes,1.7953321364452424
12710550,39,1.6920473773265652,1,733,62,female,FALSE,Insects,opposite valenced attributes,1.364256480218281
12710550,40,1.7985611510791366,1,598,62,female,FALSE,Insects,opposite valenced attributes,1.6722408026755853
12710550,41,1.4388489208633093,1,725,62,female,FALSE,Insects,opposite valenced attributes,1.3793103448275863
12710550,42,1.6556291390728477,1,593,62,female,FALSE,Insects,opposite valenced attributes,1.6863406408094435
12710550,43,1.4005602240896358,1,661,62,female,FALSE,Insects,opposite valenced attributes,1.51285930408472
12710550,44,1.6103059581320451,1,767,62,female,FALSE,Insects,opposite valenced attributes,1.303780964797914
12710550,45,1.1074197120708749,1,817,62,female,FALSE,Insects,opposite valenced attributes,1.2239902080783354
12710550,46,1.7241379310344827,1,592,62,female,FALSE,Insects,opposite valenced attributes,1.6891891891891893
12710550,47,1.2515644555694618,1,737,62,female,FALSE,Insects,opposite valenced attributes,1.3568521031207599
12710550,48,1.2626262626262625,1,961,62,female,FALSE,Insects,opposite valenced attributes,1.0405827263267429
12710550,49,1.8281535648994516,1,604,62,female,FALSE,Insects,opposite valenced attributes,1.6556291390728477
12710550,50,1.36986301369863,1,629,62,female,FALSE,Insects,opposite valenced attributes,1.589825119236884
12710550,51,1.8115942028985508,1,671,62,female,FALSE,Insects,opposite valenced attributes,1.4903129657228018
12710550,52,1.5600624024960998,1,655,62,female,FALSE,Insects,opposite valenced attributes,1.5267175572519085
12710550,53,1.4992503748125936,1,798,62,female,FALSE,Insects,opposite valenced attributes,1.2531328320802004
12710550,54,1.6501650165016502,1,648,62,female,FALSE,Insects,opposite valenced attributes,1.5432098765432098
12710550,55,0.7930214115781126,1,867,62,female,FALSE,Insects,opposite valenced attributes,1.1534025374855825
12710550,56,1.455604075691412,1,801,62,female,FALSE,Insects,opposite valenced attributes,1.2484394506866416
12710550,57,1.3297872340425532,1,517,62,female,FALSE,Insects,opposite valenced attributes,1.9342359767891684
12710550,58,1.3888888888888888,1,509,62,female,FALSE,Insects,opposite valenced attributes,1.9646365422396856
12710550,59,1.6501650165016502,1,885,62,female,FALSE,Insects,opposite valenced attributes,1.1299435028248588
12710550,60,1.6,1,531,62,female,FALSE,Insects,opposite valenced attributes,1.8832391713747645
12710550,61,1.466275659824047,1,620,62,female,FALSE,Insects,opposite valenced attributes,1.6129032258064515
12710550,62,0.8136696501220505,1,533,62,female,FALSE,Insects,opposite valenced attributes,1.876172607879925
12710550,63,1.8148820326678765,1,495,62,female,FALSE,Insects,opposite valenced attributes,2.0202020202020203
12710550,64,1.4450867052023122,1,558,62,female,FALSE,Insects,opposite valenced attributes,1.7921146953405018
12710550,65,1.2690355329949239,1,513,62,female,FALSE,Insects,opposite valenced attributes,1.949317738791423
12710550,66,1.3986013986013985,1,415,62,female,FALSE,Insects,opposite valenced attributes,2.4096385542168677
12710550,67,1.5479876160990713,1,586,62,female,FALSE,Insects,opposite valenced attributes,1.7064846416382253
12710550,68,1.5151515151515151,1,543,62,female,FALSE,Insects,opposite valenced attributes,1.8416206261510129
12710550,69,1.3245033112582782,1,628,62,female,FALSE,Insects,opposite valenced attributes,1.5923566878980893
12710550,70,1.5873015873015872,1,479,62,female,FALSE,Insects,opposite valenced attributes,2.0876826722338206
20378713,1,0.8012820512820513,1,773,19,male,FALSE,Flowers,opposite valenced attributes,1.2936610608020698
20378713,2,1.4104372355430184,1,972,19,male,FALSE,Flowers,opposite valenced attributes,1.02880658436214
20378713,3,2.237136465324385,1,508,19,male,FALSE,Flowers,opposite valenced attributes,1.968503937007874
20378713,4,1.6778523489932886,1,958,19,male,FALSE,Flowers,opposite valenced attributes,1.0438413361169103
20378713,5,1.594896331738437,1,527,19,male,FALSE,Flowers,opposite valenced attributes,1.8975332068311195
20378713,6,1.6,1,560,19,male,FALSE,Flowers,opposite valenced attributes,1.7857142857142858
20378713,7,1.4245014245014245,1,544,19,male,FALSE,Flowers,opposite valenced attributes,1.838235294117647
20378713,8,2.044989775051125,1,561,19,male,FALSE,Flowers,opposite valenced attributes,1.7825311942959001
20378713,9,1.1862396204033214,1,721,19,male,FALSE,Flowers,opposite valenced attributes,1.3869625520110958
20378713,10,1.485884101040119,1,651,19,male,FALSE,Flowers,opposite valenced attributes,1.5360983102918586
20378713,11,1.0460251046025104,1,567,19,male,FALSE,Flowers,opposite valenced attributes,1.763668430335097
20378713,12,1.6129032258064515,1,615,19,male,FALSE,Flowers,opposite valenced attributes,1.6260162601626016
20378713,13,1.7064846416382253,1,581,19,male,FALSE,Flowers,opposite valenced attributes,1.721170395869191
20378713,14,1.5037593984962405,1,548,19,male,FALSE,Flowers,opposite valenced attributes,1.8248175182481752
20378713,15,1.6750418760469012,1,613,19,male,FALSE,Flowers,opposite valenced attributes,1.6313213703099512
20378713,16,1.8248175182481752,1,691,19,male,FALSE,Flowers,opposite valenced attributes,1.447178002894356
20378713,17,2.293577981651376,1,654,19,male,FALSE,Flowers,opposite valenced attributes,1.529051987767584
20378713,18,2.2675736961451247,1,635,19,male,FALSE,Flowers,opposite valenced attributes,1.5748031496062993
20378713,19,1.278772378516624,1,552,19,male,FALSE,Flowers,opposite valenced attributes,1.8115942028985508
20378713,20,2.293577981651376,1,472,19,male,FALSE,Flowers,opposite valenced attributes,2.1186440677966103
20378713,21,0.8058017727639001,1,603,19,male,FALSE,Flowers,opposite valenced attributes,1.658374792703151
20378713,22,1.567398119122257,1,634,19,male,FALSE,Flowers,opposite valenced attributes,1.5772870662460567
20378713,23,1.4326647564469914,0,966,19,male,FALSE,Flowers,opposite valenced attributes,1.0351966873706004
20378713,24,0.9149130832570905,1,645,19,male,FALSE,Flowers,opposite valenced attributes,1.550387596899225
20378713,25,1.4534883720930232,1,498,19,male,FALSE,Flowers,opposite valenced attributes,2.0080321285140563
20378713,26,1.3106159895150722,0,757,19,male,FALSE,Flowers,opposite valenced attributes,1.321003963011889
20378713,27,1.6339869281045751,0,781,19,male,FALSE,Flowers,opposite valenced attributes,1.2804097311139564
20378713,28,1.4492753623188406,1,628,19,male,FALSE,Flowers,opposite valenced attributes,1.5923566878980893
20378713,29,1.4947683109118086,1,945,19,male,FALSE,Flowers,opposite valenced attributes,1.0582010582010581
20378713,30,1.288659793814433,1,562,19,male,FALSE,Flowers,opposite valenced attributes,1.7793594306049823
20378713,31,1.3888888888888888,1,498,19,male,FALSE,Flowers,opposite valenced attributes,2.0080321285140563
20378713,32,1.5408320493066257,1,469,19,male,FALSE,Flowers,opposite valenced attributes,2.1321961620469083
20378713,33,1.5105740181268883,,,,,,,,
20378713,34,1.597444089456869,1,621,19,male,FALSE,Flowers,opposite valenced attributes,1.6103059581320451
20378713,35,1.6051364365971108,1,811,19,male,FALSE,Flowers,opposite valenced attributes,1.2330456226880395
20378713,36,0.9216589861751152,1,1057,19,male,FALSE,Flowers,opposite valenced attributes,0.9460737937559129
20378713,37,1.404494382022472,1,670,19,male,FALSE,Flowers,opposite valenced attributes,1.492537313432836
20378713,38,1.639344262295082,0,1145,19,male,FALSE,Flowers,opposite valenced attributes,0.8733624454148472
20378713,39,1.7857142857142858,1,418,19,male,FALSE,Flowers,opposite valenced attributes,2.3923444976076556
20378713,40,2.2271714922048997,1,1207,19,male,FALSE,Flowers,opposite valenced attributes,0.8285004142502072
20378713,41,1.5873015873015872,1,525,19,male,FALSE,Flowers,opposite valenced attributes,1.9047619047619047
20378713,42,0.8779631255487269,1,559,19,male,FALSE,Flowers,opposite valenced attributes,1.7889087656529516
20378713,43,1.5723270440251573,1,703,19,male,FALSE,Flowers,opposite valenced attributes,1.422475106685633
20378713,44,1.342281879194631,1,585,19,male,FALSE,Flowers,opposite valenced attributes,1.7094017094017093
20378713,45,1.597444089456869,1,632,19,male,FALSE,Flowers,opposite valenced attributes,1.5822784810126582
20378713,46,1.25,1,965,19,male,FALSE,Flowers,opposite valenced attributes,1.0362694300518134
20378713,47,1.7699115044247788,1,1797,19,male,FALSE,Flowers,opposite valenced attributes,0.5564830272676683
20378713,48,1.876172607879925,1,725,19,male,FALSE,Flowers,opposite valenced attributes,1.3793103448275863
20378713,49,1.9920318725099602,1,734,19,male,FALSE,Flowers,opposite valenced attributes,1.3623978201634876
20378713,50,1.663893510815308,1,807,19,male,FALSE,Flowers,opposite valenced attributes,1.2391573729863692
20378713,51,1.1933174224343674,1,797,19,male,FALSE,Flowers,opposite valenced attributes,1.2547051442910917
20378713,52,2.2573363431151243,1,596,19,male,FALSE,Flowers,opposite valenced attributes,1.6778523489932886
20378713,53,1.524390243902439,0,1459,19,male,FALSE,Flowers,opposite valenced attributes,0.6854009595613434
20378713,54,1.6556291390728477,1,575,19,male,FALSE,Flowers,opposite valenced attributes,1.7391304347826086
20378713,55,1.7543859649122806,1,590,19,male,FALSE,Flowers,opposite valenced attributes,1.694915254237288
20378713,56,1.7064846416382253,1,605,19,male,FALSE,Flowers,opposite valenced attributes,1.6528925619834711
20378713,57,1.5822784810126582,1,460,19,male,FALSE,Flowers,opposite valenced attributes,2.1739130434782608
20378713,58,1.550387596899225,0,848,19,male,FALSE,Flowers,opposite valenced attributes,1.179245283018868
20378713,59,1.5197568389057752,1,611,19,male,FALSE,Flowers,opposite valenced attributes,1.6366612111292962
20378713,60,1.7421602787456445,1,578,19,male,FALSE,Flowers,opposite valenced attributes,1.7301038062283738
20378713,61,1.6501650165016502,1,577,19,male,FALSE,Flowers,opposite valenced attributes,1.733102253032929
20378713,62,1.4619883040935673,1,577,19,male,FALSE,Flowers,opposite valenced attributes,1.733102253032929
20378713,63,1.3458950201884252,1,528,19,male,FALSE,Flowers,opposite valenced attributes,1.893939393939394
20378713,64,1.6025641025641026,1,450,19,male,FALSE,Flowers,opposite valenced attributes,2.2222222222222223
20378713,65,1.694915254237288,0,790,19,male,FALSE,Flowers,opposite valenced attributes,1.2658227848101267
20378713,66,1.1415525114155252,1,396,19,male,FALSE,Flowers,opposite valenced attributes,2.525252525252525
20378713,67,1.358695652173913,1,451,19,male,FALSE,Flowers,opposite valenced attributes,2.2172949002217295
20378713,68,1.9193857965451055,0,951,19,male,FALSE,Flowers,opposite valenced attributes,1.0515247108307044
20378713,69,1.658374792703151,1,583,19,male,FALSE,Flowers,opposite valenced attributes,1.7152658662092624
20378713,70,1.4347202295552368,1,982,19,male,FALSE,Flowers,opposite valenced attributes,1.0183299389002036
21129657,1,0.9115770282588879,1,789,39,male,FALSE,Flowers,opposite valenced attributes,1.267427122940431
21129657,2,1.5151515151515151,1,852,39,male,FALSE,Flowers,opposite valenced attributes,1.1737089201877935
21129657,3,1.8115942028985508,1,615,39,male,FALSE,Flowers,opposite valenced attributes,1.6260162601626016
21129657,4,1.5432098765432098,1,645,39,male,FALSE,Flowers,opposite valenced attributes,1.550387596899225
21129657,5,1.443001443001443,1,594,39,male,FALSE,Flowers,opposite valenced attributes,1.6835016835016836
21129657,6,1.1061946902654867,1,704,39,male,FALSE,Flowers,opposite valenced attributes,1.4204545454545454
21129657,7,1.1560693641618498,1,642,39,male,FALSE,Flowers,opposite valenced attributes,1.557632398753894
21129657,8,1.51285930408472,1,731,39,male,FALSE,Flowers,opposite valenced attributes,1.3679890560875514
21129657,9,1.7064846416382253,1,532,39,male,FALSE,Flowers,opposite valenced attributes,1.8796992481203008
21129657,10,1.3736263736263736,1,785,39,male,FALSE,Flowers,opposite valenced attributes,1.2738853503184713
21129657,11,1.663893510815308,1,532,39,male,FALSE,Flowers,opposite valenced attributes,1.8796992481203008
21129657,12,1.0416666666666667,1,613,39,male,FALSE,Flowers,opposite valenced attributes,1.6313213703099512
21129657,13,1.1961722488038278,1,570,39,male,FALSE,Flowers,opposite valenced attributes,1.7543859649122806
21129657,14,1.5313935681470139,1,570,39,male,FALSE,Flowers,opposite valenced attributes,1.7543859649122806
21129657,15,1.6339869281045751,1,626,39,male,FALSE,Flowers,opposite valenced attributes,1.597444089456869
21129657,16,1.5197568389057752,1,583,39,male,FALSE,Flowers,opposite valenced attributes,1.7152658662092624
21129657,17,1.7889087656529516,1,557,39,male,FALSE,Flowers,opposite valenced attributes,1.7953321364452424
21129657,18,1.2406947890818858,1,589,39,male,FALSE,Flowers,opposite valenced attributes,1.697792869269949
21129657,19,1.1904761904761905,1,651,39,male,FALSE,Flowers,opposite valenced attributes,1.5360983102918586
21129657,20,1.7361111111111112,1,552,39,male,FALSE,Flowers,opposite valenced attributes,1.8115942028985508
21129657,21,1.838235294117647,1,551,39,male,FALSE,Flowers,opposite valenced attributes,1.8148820326678765
21129657,22,1.7361111111111112,1,616,39,male,FALSE,Flowers,opposite valenced attributes,1.6233766233766234
21129657,23,1.4705882352941178,1,781,39,male,FALSE,Flowers,opposite valenced attributes,1.2804097311139564
21129657,24,1.589825119236884,0,1204,39,male,FALSE,Flowers,opposite valenced attributes,0.8305647840531561
21129657,25,1.5600624024960998,1,786,39,male,FALSE,Flowers,opposite valenced attributes,1.272264631043257
21129657,26,1.8214936247723132,1,592,39,male,FALSE,Flowers,opposite valenced attributes,1.6891891891891893
21129657,27,1.8484288354898337,1,703,39,male,FALSE,Flowers,opposite valenced attributes,1.422475106685633
21129657,28,1.8181818181818181,1,752,39,male,FALSE,Flowers,opposite valenced attributes,1.3297872340425532
21129657,29,1.845018450184502,1,608,39,male,FALSE,Flowers,opposite valenced attributes,1.644736842105263
21129657,30,1.9305019305019304,1,664,39,male,FALSE,Flowers,opposite valenced attributes,1.5060240963855422
21129657,31,1.838235294117647,1,660,39,male,FALSE,Flowers,opposite valenced attributes,1.5151515151515151
21129657,32,1.6025641025641026,1,710,39,male,FALSE,Flowers,opposite valenced attributes,1.408450704225352
21129657,33,1.6722408026755853,1,812,39,male,FALSE,Flowers,opposite valenced attributes,1.2315270935960592
21129657,34,1.8248175182481752,1,654,39,male,FALSE,Flowers,opposite valenced attributes,1.529051987767584
21129657,35,1.8484288354898337,1,610,39,male,FALSE,Flowers,opposite valenced attributes,1.639344262295082
21129657,36,1.9607843137254901,1,844,39,male,FALSE,Flowers,opposite valenced attributes,1.1848341232227488
21129657,37,1.6025641025641026,1,845,39,male,FALSE,Flowers,opposite valenced attributes,1.183431952662722
21129657,38,1.6778523489932886,1,665,39,male,FALSE,Flowers,opposite valenced attributes,1.5037593984962405
21129657,39,1.7513134851138354,0,1513,39,male,FALSE,Flowers,opposite valenced attributes,0.6609385327164574
21129657,40,2.0366598778004072,1,1343,39,male,FALSE,Flowers,opposite valenced attributes,0.7446016381236039
21129657,41,2.202643171806167,1,947,39,male,FALSE,Flowers,opposite valenced attributes,1.0559662090813093
21129657,42,2.1691973969631237,1,868,39,male,FALSE,Flowers,opposite valenced attributes,1.152073732718894
21129657,43,1.7921146953405018,1,687,39,male,FALSE,Flowers,opposite valenced attributes,1.455604075691412
21129657,44,1.8181818181818181,1,578,39,male,FALSE,Flowers,opposite valenced attributes,1.7301038062283738
21129657,45,1.7699115044247788,1,689,39,male,FALSE,Flowers,opposite valenced attributes,1.4513788098693758
21129657,46,1.7793594306049823,1,611,39,male,FALSE,Flowers,opposite valenced attributes,1.6366612111292962
21129657,47,1.8726591760299625,1,681,39,male,FALSE,Flowers,opposite valenced attributes,1.4684287812041117
21129657,48,1.694915254237288,1,1724,39,male,FALSE,Flowers,opposite valenced attributes,0.580046403712297
21129657,49,1.8796992481203008,1,742,39,male,FALSE,Flowers,opposite valenced attributes,1.3477088948787062
21129657,50,1.0905125408942202,,,,,,,,
21129657,51,2.0408163265306123,1,1824,39,male,FALSE,Flowers,opposite valenced attributes,0.5482456140350878
21129657,52,2.0242914979757085,1,990,39,male,FALSE,Flowers,opposite valenced attributes,1.0101010101010102
21129657,53,1.303780964797914,1,1108,39,male,FALSE,Flowers,opposite valenced attributes,0.9025270758122743
21129657,54,1.7123287671232876,1,902,39,male,FALSE,Flowers,opposite valenced attributes,1.1086474501108647
21129657,55,2.05761316872428,1,657,39,male,FALSE,Flowers,opposite valenced attributes,1.5220700152207
21129657,56,1.7857142857142858,1,620,39,male,FALSE,Flowers,opposite valenced attributes,1.6129032258064515
21129657,57,1.6025641025641026,1,1018,39,male,FALSE,Flowers,opposite valenced attributes,0.9823182711198428
21129657,58,1.7921146953405018,1,766,39,male,FALSE,Flowers,opposite valenced attributes,1.3054830287206267
21129657,59,1.876172607879925,1,670,39,male,FALSE,Flowers,opposite valenced attributes,1.492537313432836
21129657,60,0.9940357852882704,1,676,39,male,FALSE,Flowers,opposite valenced attributes,1.4792899408284024
21129657,61,1.7513134851138354,1,1012,39,male,FALSE,Flowers,opposite valenced attributes,0.9881422924901185
21129657,62,1.7271157167530224,1,750,39,male,FALSE,Flowers,opposite valenced attributes,1.3333333333333333
21129657,63,1.3106159895150722,1,642,39,male,FALSE,Flowers,opposite valenced attributes,1.557632398753894
21129657,64,1.7793594306049823,0,1814,39,male,FALSE,Flowers,opposite valenced attributes,0.5512679162072768
21129657,65,1.1135857461024499,1,771,39,male,FALSE,Flowers,opposite valenced attributes,1.297016861219196
21129657,66,1.7482517482517483,1,839,39,male,FALSE,Flowers,opposite valenced attributes,1.1918951132300357
21129657,67,1.6129032258064515,1,1579,39,male,FALSE,Flowers,opposite valenced attributes,0.6333122229259025
21129657,68,1.757469244288225,1,690,39,male,FALSE,Flowers,opposite valenced attributes,1.4492753623188406
21129657,69,1.4184397163120568,1,613,39,male,FALSE,Flowers,opposite valenced attributes,1.6313213703099512
21129657,70,1.5384615384615385,1,771,39,male,FALSE,Flowers,opposite valenced attributes,1.297016861219196
21335017,1,1.267427122940431,1,672,37,male,FALSE,Flowers,opposite valenced attributes,1.4880952380952381
21335017,2,1.8518518518518519,1,379,37,male,FALSE,Flowers,opposite valenced attributes,2.638522427440633
21335017,3,2.577319587628866,1,387,37,male,FALSE,Flowers,opposite valenced attributes,2.5839793281653747
21335017,4,1.019367991845056,,,,,,,,
21335017,5,1.6474464579901154,1,476,37,male,FALSE,Flowers,opposite valenced attributes,2.100840336134454
21335017,6,0.8097165991902834,1,429,37,male,FALSE,Flowers,opposite valenced attributes,2.331002331002331
21335017,7,1.6722408026755853,1,404,37,male,FALSE,Flowers,opposite valenced attributes,2.4752475247524752
21335017,8,1.7006802721088434,1,809,37,male,FALSE,Flowers,opposite valenced attributes,1.2360939431396787
21335017,9,1.7761989342806395,1,567,37,male,FALSE,Flowers,opposite valenced attributes,1.763668430335097
21335017,10,1.5151515151515151,1,439,37,male,FALSE,Flowers,opposite valenced attributes,2.277904328018223
21335017,11,1.7361111111111112,1,1023,37,male,FALSE,Flowers,opposite valenced attributes,0.9775171065493646
21335017,12,1.9267822736030829,1,1259,37,male,FALSE,Flowers,opposite valenced attributes,0.7942811755361397
21335017,13,2.3094688221709005,1,957,37,male,FALSE,Flowers,opposite valenced attributes,1.044932079414838
21335017,14,2.202643171806167,1,542,37,male,FALSE,Flowers,opposite valenced attributes,1.845018450184502
21335017,15,2.207505518763797,1,582,37,male,FALSE,Flowers,opposite valenced attributes,1.7182130584192439
21335017,16,1.5923566878980893,1,581,37,male,FALSE,Flowers,opposite valenced attributes,1.721170395869191
21335017,17,1.893939393939394,1,580,37,male,FALSE,Flowers,opposite valenced attributes,1.7241379310344827
21335017,18,1.7452006980802792,1,940,37,male,FALSE,Flowers,opposite valenced attributes,1.0638297872340425
21335017,19,1.4792899408284024,1,829,37,male,FALSE,Flowers,opposite valenced attributes,1.2062726176115801
21335017,20,1.4727540500736378,1,364,37,male,FALSE,Flowers,opposite valenced attributes,2.7472527472527473
21335017,21,1.3513513513513513,1,440,37,male,FALSE,Flowers,opposite valenced attributes,2.272727272727273
21335017,22,1.6129032258064515,1,870,37,male,FALSE,Flowers,opposite valenced attributes,1.1494252873563218
21335017,23,1.697792869269949,1,883,37,male,FALSE,Flowers,opposite valenced attributes,1.1325028312570782
21335017,24,1.6025641025641026,1,550,37,male,FALSE,Flowers,opposite valenced attributes,1.8181818181818181
21335017,25,1.9880715705765408,1,414,37,male,FALSE,Flowers,opposite valenced attributes,2.4154589371980677
21335017,26,1.6207455429497568,1,420,37,male,FALSE,Flowers,opposite valenced attributes,2.380952380952381
21335017,27,1.589825119236884,1,874,37,male,FALSE,Flowers,opposite valenced attributes,1.1441647597254005
21335017,28,2.2988505747126435,1,1254,37,male,FALSE,Flowers,opposite valenced attributes,0.7974481658692185
21335017,29,1.4534883720930232,1,738,37,male,FALSE,Flowers,opposite valenced attributes,1.3550135501355014
21335017,30,1.757469244288225,1,561,37,male,FALSE,Flowers,opposite valenced attributes,1.7825311942959001
21335017,31,1.5772870662460567,1,1380,37,male,FALSE,Flowers,opposite valenced attributes,0.7246376811594203
21335017,32,0.9337068160597572,1,547,37,male,FALSE,Flowers,opposite valenced attributes,1.8281535648994516
21335017,33,1.557632398753894,1,515,37,male,FALSE,Flowers,opposite valenced attributes,1.941747572815534
21335017,34,1.5772870662460567,1,501,37,male,FALSE,Flowers,opposite valenced attributes,1.996007984031936
21335017,35,1.4792899408284024,1,417,37,male,FALSE,Flowers,opposite valenced attributes,2.3980815347721824
21335017,36,2.0120724346076457,1,397,37,male,FALSE,Flowers,opposite valenced attributes,2.5188916876574305
21335017,37,1.8281535648994516,1,610,37,male,FALSE,Flowers,opposite valenced attributes,1.639344262295082
21335017,38,2.570694087403599,1,729,37,male,FALSE,Flowers,opposite valenced attributes,1.3717421124828533
21335017,39,2.493765586034913,1,506,37,male,FALSE,Flowers,opposite valenced attributes,1.976284584980237
21335017,40,2.159827213822894,1,509,37,male,FALSE,Flowers,opposite valenced attributes,1.9646365422396856
21335017,41,2.2988505747126435,1,375,37,male,FALSE,Flowers,opposite valenced attributes,2.6666666666666665
21335017,42,1.0245901639344261,1,510,37,male,FALSE,Flowers,opposite valenced attributes,1.9607843137254901
21335017,43,0.7698229407236336,1,393,37,male,FALSE,Flowers,opposite valenced attributes,2.544529262086514
21335017,44,2.2172949002217295,1,431,37,male,FALSE,Flowers,opposite valenced attributes,2.320185614849188
21335017,45,2.506265664160401,1,476,37,male,FALSE,Flowers,opposite valenced attributes,2.100840336134454
21335017,46,1.9342359767891684,1,816,37,male,FALSE,Flowers,opposite valenced attributes,1.2254901960784315
21335017,47,2.4154589371980677,1,837,37,male,FALSE,Flowers,opposite valenced attributes,1.1947431302270013
21335017,48,1.697792869269949,1,554,37,male,FALSE,Flowers,opposite valenced attributes,1.8050541516245486
21335017,49,0.9099181073703366,1,411,37,male,FALSE,Flowers,opposite valenced attributes,2.4330900243309004
21335017,50,1.7730496453900708,1,577,37,male,FALSE,Flowers,opposite valenced attributes,1.733102253032929
21335017,51,2.331002331002331,1,552,37,male,FALSE,Flowers,opposite valenced attributes,1.8115942028985508
21335017,52,2.2222222222222223,1,521,37,male,FALSE,Flowers,opposite valenced attributes,1.9193857965451055
21335017,53,1.1286681715575622,1,411,37,male,FALSE,Flowers,opposite valenced attributes,2.4330900243309004
21335017,54,2.5,0,994,37,male,FALSE,Flowers,opposite valenced attributes,1.0060362173038229
21335017,55,1.124859392575928,1,1134,37,male,FALSE,Flowers,opposite valenced attributes,0.8818342151675485
21335017,57,1.8115942028985508,1,881,37,male,FALSE,Flowers,opposite valenced attributes,1.1350737797956867
21335017,58,2.347417840375587,1,436,37,male,FALSE,Flowers,opposite valenced attributes,2.293577981651376
21335017,59,1.8975332068311195,1,527,37,male,FALSE,Flowers,opposite valenced attributes,1.8975332068311195
21335017,60,1.5432098765432098,1,442,37,male,FALSE,Flowers,opposite valenced attributes,2.262443438914027
21335017,61,1.4285714285714286,0,1023,37,male,FALSE,Flowers,opposite valenced attributes,0.9775171065493646
21335017,62,1.5384615384615385,1,1013,37,male,FALSE,Flowers,opposite valenced attributes,0.9871668311944719
21335017,63,1.6501650165016502,1,622,37,male,FALSE,Flowers,opposite valenced attributes,1.607717041800643
21335017,64,1.5847860538827259,1,1767,37,male,FALSE,Flowers,opposite valenced attributes,0.5659309564233164
21335017,65,1.7391304347826086,1,623,37,male,FALSE,Flowers,opposite valenced attributes,1.6051364365971108
21335017,66,0.9699321047526673,1,506,37,male,FALSE,Flowers,opposite valenced attributes,1.976284584980237
21335017,67,1.3568521031207599,1,559,37,male,FALSE,Flowers,opposite valenced attributes,1.7889087656529516
21335017,68,1.0905125408942202,1,502,37,male,FALSE,Flowers,opposite valenced attributes,1.9920318725099602
21335017,69,1.3315579227696406,1,599,37,male,FALSE,Flowers,opposite valenced attributes,1.669449081803005
21335017,70,1.4684287812041117,1,671,37,male,FALSE,Flowers,opposite valenced attributes,1.4903129657228018
22187609,1,1.314060446780552,1,674,27,male,FALSE,Flowers,opposite valenced attributes,1.4836795252225519
22187609,2,1.4992503748125936,1,455,27,male,FALSE,Flowers,opposite valenced attributes,2.197802197802198
22187609,3,1.86219739292365,1,678,27,male,FALSE,Flowers,opposite valenced attributes,1.4749262536873156
22187609,4,1.996007984031936,1,452,27,male,FALSE,Flowers,opposite valenced attributes,2.2123893805309733
22187609,5,2.5839793281653747,1,395,27,male,FALSE,Flowers,opposite valenced attributes,2.5316455696202533
22187609,6,1.996007984031936,1,422,27,male,FALSE,Flowers,opposite valenced attributes,2.3696682464454977
22187609,7,1.4814814814814814,1,375,27,male,FALSE,Flowers,opposite valenced attributes,2.6666666666666665
22187609,8,2.4038461538461537,1,474,27,male,FALSE,Flowers,opposite valenced attributes,2.109704641350211
22187609,9,2.262443438914027,1,505,27,male,FALSE,Flowers,opposite valenced attributes,1.9801980198019802
22187609,10,1.6835016835016836,1,414,27,male,FALSE,Flowers,opposite valenced attributes,2.4154589371980677
22187609,11,2.1739130434782608,1,472,27,male,FALSE,Flowers,opposite valenced attributes,2.1186440677966103
22187609,12,2.881844380403458,1,399,27,male,FALSE,Flowers,opposite valenced attributes,2.506265664160401
22187609,13,1.7857142857142858,1,425,27,male,FALSE,Flowers,opposite valenced attributes,2.3529411764705883
22187609,14,2.2988505747126435,1,378,27,male,FALSE,Flowers,opposite valenced attributes,2.6455026455026456
22187609,15,2.336448598130841,1,406,27,male,FALSE,Flowers,opposite valenced attributes,2.4630541871921183
22187609,16,2.73972602739726,0,623,27,male,FALSE,Flowers,opposite valenced attributes,1.6051364365971108
22187609,17,2.444987775061125,1,430,27,male,FALSE,Flowers,opposite valenced attributes,2.3255813953488373
22187609,18,2.4813895781637716,1,567,27,male,FALSE,Flowers,opposite valenced attributes,1.763668430335097
22187609,20,1.2987012987012987,1,375,27,male,FALSE,Flowers,opposite valenced attributes,2.6666666666666665
22187609,21,2.7027027027027026,1,362,27,male,FALSE,Flowers,opposite valenced attributes,2.7624309392265194
22187609,22,1.4577259475218658,1,422,27,male,FALSE,Flowers,opposite valenced attributes,2.3696682464454977
22187609,23,1.4347202295552368,1,503,27,male,FALSE,Flowers,opposite valenced attributes,1.9880715705765408
22187609,24,1.6750418760469012,1,733,27,male,FALSE,Flowers,opposite valenced attributes,1.364256480218281
22187609,25,1.529051987767584,1,640,27,male,FALSE,Flowers,opposite valenced attributes,1.5625
22187609,26,1.1641443538998837,1,647,27,male,FALSE,Flowers,opposite valenced attributes,1.545595054095827
22187609,27,2.277904328018223,1,526,27,male,FALSE,Flowers,opposite valenced attributes,1.9011406844106464
22187609,28,2.232142857142857,1,762,27,male,FALSE,Flowers,opposite valenced attributes,1.3123359580052494
22187609,29,1.524390243902439,1,699,27,male,FALSE,Flowers,opposite valenced attributes,1.4306151645207439
22187609,30,1.697792869269949,1,480,27,male,FALSE,Flowers,opposite valenced attributes,2.0833333333333335
22187609,31,1.6722408026755853,1,487,27,male,FALSE,Flowers,opposite valenced attributes,2.0533880903490758
22187609,32,2.7247956403269753,1,413,27,male,FALSE,Flowers,opposite valenced attributes,2.4213075060532687
22187609,33,1.3386880856760375,1,423,27,male,FALSE,Flowers,opposite valenced attributes,2.3640661938534278
22187609,34,2.1691973969631237,1,560,27,male,FALSE,Flowers,opposite valenced attributes,1.7857142857142858
22187609,35,2.6315789473684212,1,410,27,male,FALSE,Flowers,opposite valenced attributes,2.4390243902439024
22187609,36,1.5267175572519085,1,388,27,male,FALSE,Flowers,opposite valenced attributes,2.577319587628866
22187609,37,2.6737967914438503,0,647,27,male,FALSE,Flowers,opposite valenced attributes,1.545595054095827
22187609,38,1.9801980198019802,0,581,27,male,FALSE,Flowers,opposite valenced attributes,1.721170395869191
22187609,39,1.7953321364452424,1,422,27,male,FALSE,Flowers,opposite valenced attributes,2.3696682464454977
22187609,40,1.5267175572519085,0,663,27,male,FALSE,Flowers,opposite valenced attributes,1.5082956259426847
22187609,41,2.5188916876574305,1,445,27,male,FALSE,Flowers,opposite valenced attributes,2.247191011235955
22187609,42,1.7152658662092624,1,485,27,male,FALSE,Flowers,opposite valenced attributes,2.0618556701030926
22187609,43,2.1141649048625792,1,484,27,male,FALSE,Flowers,opposite valenced attributes,2.0661157024793386
22187609,44,2.1231422505307855,1,554,27,male,FALSE,Flowers,opposite valenced attributes,1.8050541516245486
22187609,46,2.386634844868735,0,686,27,male,FALSE,Flowers,opposite valenced attributes,1.4577259475218658
22187609,47,2.4271844660194173,1,554,27,male,FALSE,Flowers,opposite valenced attributes,1.8050541516245486
22187609,48,1.7921146953405018,1,501,27,male,FALSE,Flowers,opposite valenced attributes,1.996007984031936
22187609,49,1.6666666666666667,1,427,27,male,FALSE,Flowers,opposite valenced attributes,2.34192037470726
22187609,50,1.2853470437017995,1,452,27,male,FALSE,Flowers,opposite valenced attributes,2.2123893805309733
22187609,51,1.9120458891013383,1,395,27,male,FALSE,Flowers,opposite valenced attributes,2.5316455696202533
22187609,52,1.7889087656529516,1,454,27,male,FALSE,Flowers,opposite valenced attributes,2.202643171806167
22187609,53,2.183406113537118,1,501,27,male,FALSE,Flowers,opposite valenced attributes,1.996007984031936
22187609,54,1.9193857965451055,1,427,27,male,FALSE,Flowers,opposite valenced attributes,2.34192037470726
22187609,55,1.9920318725099602,1,524,27,male,FALSE,Flowers,opposite valenced attributes,1.9083969465648856
22187609,56,1.7482517482517483,1,457,27,male,FALSE,Flowers,opposite valenced attributes,2.1881838074398248
22187609,57,1.9920318725099602,1,432,27,male,FALSE,Flowers,opposite valenced attributes,2.314814814814815
22187609,58,2.5839793281653747,1,473,27,male,FALSE,Flowers,opposite valenced attributes,2.1141649048625792
22187609,59,1.9305019305019304,1,432,27,male,FALSE,Flowers,opposite valenced attributes,2.314814814814815
22187609,60,2.4330900243309004,1,537,27,male,FALSE,Flowers,opposite valenced attributes,1.86219739292365
22187609,61,2.1321961620469083,1,572,27,male,FALSE,Flowers,opposite valenced attributes,1.7482517482517483
22187609,62,2.808988764044944,1,390,27,male,FALSE,Flowers,opposite valenced attributes,2.5641025641025643
22187609,63,2.192982456140351,1,417,27,male,FALSE,Flowers,opposite valenced attributes,2.3980815347721824
22187609,64,2.237136465324385,1,387,27,male,FALSE,Flowers,opposite valenced attributes,2.5839793281653747
22187609,65,2.457002457002457,1,429,27,male,FALSE,Flowers,opposite valenced attributes,2.331002331002331
22187609,66,2.2271714922048997,1,406,27,male,FALSE,Flowers,opposite valenced attributes,2.4630541871921183
22187609,67,2.2675736961451247,1,544,27,male,FALSE,Flowers,opposite valenced attributes,1.838235294117647
22187609,68,1.7793594306049823,1,380,27,male,FALSE,Flowers,opposite valenced attributes,2.6315789473684212
22187609,69,2.865329512893983,1,455,27,male,FALSE,Flowers,opposite valenced attributes,2.197802197802198
22187609,70,2.1141649048625792,1,383,27,male,FALSE,Flowers,opposite valenced attributes,2.6109660574412534
22196230,1,0.7668711656441718,1,863,30,female,FALSE,Insects,opposite valenced attributes,1.1587485515643106
22196230,2,1.6207455429497568,1,574,30,female,FALSE,Insects,opposite valenced attributes,1.7421602787456445
22196230,3,1.8248175182481752,1,723,30,female,FALSE,Insects,opposite valenced attributes,1.3831258644536653
22196230,4,1.4836795252225519,1,668,30,female,FALSE,Insects,opposite valenced attributes,1.4970059880239521
22196230,5,0.7293946024799417,1,548,30,female,FALSE,Insects,opposite valenced attributes,1.8248175182481752
22196230,6,1.594896331738437,1,606,30,female,FALSE,Insects,opposite valenced attributes,1.6501650165016502
22196230,7,1.8552875695732838,1,958,30,female,FALSE,Insects,opposite valenced attributes,1.0438413361169103
22196230,8,2.0876826722338206,1,650,30,female,FALSE,Insects,opposite valenced attributes,1.5384615384615385
22196230,9,1.5082956259426847,1,519,30,female,FALSE,Insects,opposite valenced attributes,1.9267822736030829
22196230,10,0.9920634920634921,1,626,30,female,FALSE,Insects,opposite valenced attributes,1.597444089456869
22196230,11,1.0309278350515463,1,588,30,female,FALSE,Insects,opposite valenced attributes,1.7006802721088434
22196230,12,1.8691588785046729,1,507,30,female,FALSE,Insects,opposite valenced attributes,1.9723865877712032
22196230,13,1.858736059479554,1,708,30,female,FALSE,Insects,opposite valenced attributes,1.4124293785310735
22196230,14,1.757469244288225,1,850,30,female,FALSE,Insects,opposite valenced attributes,1.1764705882352942
22196230,16,2.079002079002079,1,566,30,female,FALSE,Insects,opposite valenced attributes,1.7667844522968197
22196230,17,1.492537313432836,1,965,30,female,FALSE,Insects,opposite valenced attributes,1.0362694300518134
22196230,18,0.731528895391368,1,604,30,female,FALSE,Insects,opposite valenced attributes,1.6556291390728477
22196230,19,1.0384215991692627,1,699,30,female,FALSE,Insects,opposite valenced attributes,1.4306151645207439
22196230,20,1.3513513513513513,1,530,30,female,FALSE,Insects,opposite valenced attributes,1.8867924528301887
22196230,21,1.6233766233766234,1,658,30,female,FALSE,Insects,opposite valenced attributes,1.5197568389057752
22196230,22,1.8115942028985508,1,576,30,female,FALSE,Insects,opposite valenced attributes,1.7361111111111112
22196230,23,1.6835016835016836,1,751,30,female,FALSE,Insects,opposite valenced attributes,1.3315579227696406
22196230,24,1.440922190201729,1,621,30,female,FALSE,Insects,opposite valenced attributes,1.6103059581320451
22196230,25,1.607717041800643,1,882,30,female,FALSE,Insects,opposite valenced attributes,1.1337868480725624
22196230,26,1.402524544179523,1,768,30,female,FALSE,Insects,opposite valenced attributes,1.3020833333333333
22196230,27,1.8484288354898337,1,524,30,female,FALSE,Insects,opposite valenced attributes,1.9083969465648856
22196230,28,2.0120724346076457,1,608,30,female,FALSE,Insects,opposite valenced attributes,1.644736842105263
22196230,29,1.6528925619834711,1,599,30,female,FALSE,Insects,opposite valenced attributes,1.669449081803005
22196230,30,2.100840336134454,0,1805,30,female,FALSE,Insects,opposite valenced attributes,0.554016620498615
22196230,31,1.02880658436214,1,646,30,female,FALSE,Insects,opposite valenced attributes,1.5479876160990713
22196230,32,1.757469244288225,1,608,30,female,FALSE,Insects,opposite valenced attributes,1.644736842105263
22196230,33,2.4154589371980677,1,652,30,female,FALSE,Insects,opposite valenced attributes,1.5337423312883436
22196230,34,1.9305019305019304,1,548,30,female,FALSE,Insects,opposite valenced attributes,1.8248175182481752
22196230,35,1.7301038062283738,1,520,30,female,FALSE,Insects,opposite valenced attributes,1.9230769230769231
22196230,36,1.663893510815308,1,560,30,female,FALSE,Insects,opposite valenced attributes,1.7857142857142858
22196230,37,1.7543859649122806,1,614,30,female,FALSE,Insects,opposite valenced attributes,1.6286644951140066
22196230,38,1.2091898428053205,1,550,30,female,FALSE,Insects,opposite valenced attributes,1.8181818181818181
22196230,39,1.694915254237288,1,760,30,female,FALSE,Insects,opposite valenced attributes,1.3157894736842106
22196230,40,1.1415525114155252,1,639,30,female,FALSE,Insects,opposite valenced attributes,1.5649452269170578
22196230,41,1.1820330969267139,1,789,30,female,FALSE,Insects,opposite valenced attributes,1.267427122940431
22196230,42,0.5841121495327103,1,1125,30,female,FALSE,Insects,opposite valenced attributes,0.8888888888888888
22196230,43,1.1441647597254005,1,781,30,female,FALSE,Insects,opposite valenced attributes,1.2804097311139564
22196230,44,0.8312551953449709,1,774,30,female,FALSE,Insects,opposite valenced attributes,1.2919896640826873
22196230,45,1.834862385321101,1,667,30,female,FALSE,Insects,opposite valenced attributes,1.4992503748125936
22196230,46,1.6920473773265652,1,563,30,female,FALSE,Insects,opposite valenced attributes,1.7761989342806395
22196230,47,1.3440860215053763,1,551,30,female,FALSE,Insects,opposite valenced attributes,1.8148820326678765
22196230,48,1.5197568389057752,1,568,30,female,FALSE,Insects,opposite valenced attributes,1.7605633802816902
22196230,49,2.0120724346076457,1,485,30,female,FALSE,Insects,opposite valenced attributes,2.0618556701030926
22196230,50,1.297016861219196,1,687,30,female,FALSE,Insects,opposite valenced attributes,1.455604075691412
22196230,51,1.2953367875647668,1,637,30,female,FALSE,Insects,opposite valenced attributes,1.5698587127158556
22196230,52,1.3869625520110958,1,690,30,female,FALSE,Insects,opposite valenced attributes,1.4492753623188406
22196230,53,1.8115942028985508,1,658,30,female,FALSE,Insects,opposite valenced attributes,1.5197568389057752
22196230,54,1.5772870662460567,1,755,30,female,FALSE,Insects,opposite valenced attributes,1.3245033112582782
22196230,55,1.9230769230769231,0,1066,30,female,FALSE,Insects,opposite valenced attributes,0.9380863039399625
22196230,56,2.247191011235955,1,675,30,female,FALSE,Insects,opposite valenced attributes,1.4814814814814814
22196230,57,1.6366612111292962,1,971,30,female,FALSE,Insects,opposite valenced attributes,1.0298661174047374
22196230,58,1.5873015873015872,1,870,30,female,FALSE,Insects,opposite valenced attributes,1.1494252873563218
22196230,59,1.7730496453900708,1,659,30,female,FALSE,Insects,opposite valenced attributes,1.5174506828528074
22196230,60,1.408450704225352,1,604,30,female,FALSE,Insects,opposite valenced attributes,1.6556291390728477
22196230,61,0.774593338497289,1,520,30,female,FALSE,Insects,opposite valenced attributes,1.9230769230769231
22196230,62,1.3404825737265416,1,507,30,female,FALSE,Insects,opposite valenced attributes,1.9723865877712032
22196230,63,1.8115942028985508,1,502,30,female,FALSE,Insects,opposite valenced attributes,1.9920318725099602
22196230,64,1.763668430335097,1,710,30,female,FALSE,Insects,opposite valenced attributes,1.408450704225352
22196230,65,2.0833333333333335,1,814,30,female,FALSE,Insects,opposite valenced attributes,1.2285012285012284
22196230,66,1.721170395869191,1,591,30,female,FALSE,Insects,opposite valenced attributes,1.6920473773265652
22196230,67,1.876172607879925,1,629,30,female,FALSE,Insects,opposite valenced attributes,1.589825119236884
22196230,68,1.893939393939394,1,658,30,female,FALSE,Insects,opposite valenced attributes,1.5197568389057752
22196230,69,1.5197568389057752,1,548,30,female,FALSE,Insects,opposite valenced attributes,1.8248175182481752
22196230,70,1.4792899408284024,1,601,30,female,FALSE,Insects,opposite valenced attributes,1.663893510815308
24285217,2,1.8518518518518519,1,401,48,male,FALSE,Flowers,opposite valenced attributes,2.493765586034913
24285217,3,0.8643042350907519,1,806,48,male,FALSE,Flowers,opposite valenced attributes,1.2406947890818858
24285217,4,1.5797788309636651,1,1525,48,male,FALSE,Flowers,opposite valenced attributes,0.6557377049180327
24285217,5,0.7593014426727411,1,618,48,male,FALSE,Flowers,opposite valenced attributes,1.6181229773462784
24285217,6,1.053740779768177,1,721,48,male,FALSE,Flowers,opposite valenced attributes,1.3869625520110958
24285217,7,1.5384615384615385,1,651,48,male,FALSE,Flowers,opposite valenced attributes,1.5360983102918586
24285217,8,1.5625,1,846,48,male,FALSE,Flowers,opposite valenced attributes,1.1820330969267139
24285217,9,1.9607843137254901,1,756,48,male,FALSE,Flowers,opposite valenced attributes,1.3227513227513228
24285217,10,0.8525149190110827,1,748,48,male,FALSE,Flowers,opposite valenced attributes,1.3368983957219251
24285217,11,1.6420361247947455,1,458,48,male,FALSE,Flowers,opposite valenced attributes,2.183406113537118
24285217,12,1.303780964797914,1,434,48,male,FALSE,Flowers,opposite valenced attributes,2.304147465437788
24285217,13,1.5772870662460567,1,611,48,male,FALSE,Flowers,opposite valenced attributes,1.6366612111292962
24285217,14,1.447178002894356,1,664,48,male,FALSE,Flowers,opposite valenced attributes,1.5060240963855422
24285217,15,1.5037593984962405,1,579,48,male,FALSE,Flowers,opposite valenced attributes,1.7271157167530224
24285217,16,2.4271844660194173,1,775,48,male,FALSE,Flowers,opposite valenced attributes,1.2903225806451613
24285217,17,2.150537634408602,1,1217,48,male,FALSE,Flowers,opposite valenced attributes,0.8216926869350862
24285217,18,1.3793103448275863,1,1502,48,male,FALSE,Flowers,opposite valenced attributes,0.6657789613848203
24285217,19,1.9607843137254901,1,1075,48,male,FALSE,Flowers,opposite valenced attributes,0.9302325581395349
24285217,20,1.4970059880239521,1,726,48,male,FALSE,Flowers,opposite valenced attributes,1.3774104683195592
